timestamp,accel_x,accel_y,accel_z,gyro_x,gyro_y,gyro_z,label
521,-1.389484086256197,-7.479812460990233,7.728952089348231,85.9466403816195,-58.80934405796704,-52.92331540122335,Accident
737,-3.7647680040068776,-0.47808669643771967,10.958093133126471,2.720647698251744,96.2061204180182,112.96215028345996,Accident
740,0.037497965721751,-2.1440420309712955,6.474306681126428,41.50969443520977,-8.159577330874558,27.06859535487677,Accident
660,-1.8195101646472192,-1.0801178062709482,12.038485930631055,118.55686147492287,21.840857399550856,-4.3822688271060075,Accident
411,-0.5623210459189346,0.10957516383196948,10.078115004700331,11.156500730963161,7.689659592062764,1.7922680910481013,Normal
678,2.9259373754339366,3.5751224913211948,17.44022309554627,68.9149220506244,-9.990950828005392,28.779118010143073,Accident
626,-5.728068262521878,-2.5029691364747464,9.35773773119181,-53.37512678220043,-21.898340173340856,26.224885885929865,Accident
513,-4.1913545553389735,-5.242909529484785,12.596040028642221,-74.84770390099408,-19.014665356878744,20.70158441951373,Accident
859,-2.9391636741504206,-0.5861710535310719,14.040661081430073,-11.322060269355863,-21.987624053583378,-50.514962198654665,Accident
136,-0.39162664616811854,0.4115852919809573,10.394735244462321,-4.775612896746765,0.5092814763099335,0.9531779563251217,Normal
811,1.3484217384969206,1.2605746286849748,6.7628777014210435,-153.12480564699737,98.69794226689544,115.35539215620807,Accident
76,0.04352353411908561,0.11780727905428297,9.021709050670125,-8.075659079527547,3.078855748855708,7.320886193762187,Normal
636,2.8546493117221283,-1.0173668378101162,11.832238654433361,41.857854858962654,38.36060384012869,166.7770336984813,Accident
973,-3.1818151991898027,0.2600930982431897,13.632661057021041,-166.871830218667,-40.01582536767966,-172.29844590331692,Accident
938,-3.864922852390613,-1.0483179816508676,10.978203879270415,78.6146514215953,27.34601711639732,99.56521282842046,Accident
899,-1.2131922695518838,1.1389189451578965,14.828365542420226,48.30324162223153,24.91926870382319,87.34442712597165,Accident
280,0.05675867262562402,0.08885050046662692,9.866770452391142,-7.031587318359169,-8.629033643952983,4.3725853706626125,Normal
883,3.0809587899591966,-2.6709535440596155,12.593750002026226,38.02924885536082,134.76198676827613,-120.03812393304014,Accident
761,0.13800824175982235,-0.033276011845806176,11.139617292785193,53.50721044369745,-62.321553721598846,41.33155567487738,Accident
319,-0.06507152718384229,0.5327401875326756,9.706514348507278,-4.93589763575592,-5.500771164858475,-9.63836289672805,Normal
549,3.591740770935684,-0.1074767361193888,13.179921150015971,-18.485558196614424,-14.934316985075597,106.2445511189574,Accident
174,0.13834539966500953,-0.7037558473589106,9.423017705566663,8.076878447347209,-4.175714508150115,-5.042773420381041,Normal
371,0.24899914562272488,-0.39914862226922687,10.655854240071172,-1.0746051514436767,-2.741436482453005,2.291933517757421,Normal
527,1.3476561638551028,6.203719014490656,11.220599577697463,61.10882813067381,-35.220736350912034,1.0434699501561706,Accident
210,0.2854452553465835,0.1055087336013092,9.178068382304359,5.5354033464348635,-6.252038669848588,-4.092143329710007,Normal
235,0.3169595111590056,0.2362987412065215,10.619558402722035,-8.08155304218294,3.6538205953326224,-2.6548544890598222,Normal
101,-0.21032266138267952,-0.4610826620888127,8.351872310903156,6.874382095740924,-4.510257771787552,3.098557229830681,Normal
986,4.590585596590054,1.6594474691376275,13.262098893055438,-17.683397082964046,10.733313279667483,-63.76908529799846,Accident
902,0.5864451946598724,5.007208577478993,9.362151652764036,-82.19228412208088,42.749191890910666,-12.15739058528311,Accident
947,-2.4148994425576826,1.2845587434317283,12.29966086322764,-106.76884855281861,141.45354344478267,93.27332162041783,Accident
346,-0.7240421707486621,0.14458432195390905,8.523039432549023,6.328539204323503,-2.3941872800420207,-2.9443341336934803,Normal
139,-0.6154321582169776,-0.647539386031808,10.15058637115545,-5.337664571271365,-7.3376263287622,1.9896352497340448,Normal
621,-1.8365007514644622,1.0544397010566051,11.588067102633362,138.0981236508506,-34.8924353205988,-142.35191444057764,Accident
499,-0.691399865482168,0.2862913906780793,10.096263474600592,-3.724513224032245,1.7002564728444522,-0.7762952441237437,Normal
370,0.012255087129471357,-0.0884736137470247,9.71352697003829,-5.528523342429679,-0.7794908896833376,-3.186538735143974,Normal
198,0.029104359222999948,0.4620135096034505,9.911957067032331,2.569539248294575,-3.207434545221548,3.1103499515302433,Normal
687,2.681093068167333,0.7943259329339389,9.851869691172478,-76.00507979729018,17.10470351528507,-39.813801874323154,Accident
584,-0.5575372565782419,0.21376124973267746,15.933502493407874,-15.060906806904523,76.5036001673077,93.40078583891568,Accident
901,1.7092810715959408,-0.3901808806608601,15.215789595635393,-81.42114472615624,-31.78586020410895,-201.78223339903604,Accident
59,0.4877725635611796,-0.21049224041013148,9.614692833956948,-1.355618005212844,0.9679495568377218,4.621350697689149,Normal
328,0.31205990852607757,-0.21009340854792863,9.195152628579446,-0.49294066142130866,3.4776887878288876,4.757246385290433,Normal
96,0.14806013853228803,-0.13493746764668563,9.839317595158047,3.095771305025989,3.3524030862060625,-3.0335014738264836,Normal
312,0.4127081744940149,0.7234889421768664,10.495103774508657,8.061103141277123,1.1503537959570105,8.694256759266656,Normal
974,-2.1510484473838085,1.0670068456896882,14.537408617688785,-117.76296584214333,-13.588188614218453,35.758537360788154,Accident
299,0.3148144209618061,0.014878069747872594,9.960848903098007,0.10655824335971109,-7.51540150879909,1.5055366959587104,Normal
277,-0.30010843857939734,-0.12375931777575237,9.996658919697186,-0.1851839852420601,-5.74397017579328,-1.207487229353894,Normal
924,-5.328035262145207,-0.7879785609485033,9.298228942391816,35.79151496551805,-14.207679580699118,-140.19016761127975,Accident
601,2.566666977062136,-2.1573283543475577,9.663488871538696,74.998199400554,40.13480361350305,-8.28694827246245,Accident
439,-0.02777384944830939,-0.2820393153683642,10.16743889302491,0.48991576735447717,-8.032885503693397,-1.9623555303043647,Normal
837,-0.4469079293018907,1.139302908122688,13.509756194248514,-60.701220634829994,-64.12220720836332,115.552975604407,Accident
570,-3.8079914896400977,-0.8924466026215504,13.71601883490142,-47.71291263751037,-94.31387930386603,-0.22288885335209901,Accident
879,-2.1848166072198394,-0.5888419541638104,9.670502578520999,77.42608192201632,-44.5704458057785,25.70331766059104,Accident
261,-0.02976267803090004,0.06100490732268072,9.838002695706207,3.7106374553594614,2.0214737748084883,-4.021578798299962,Normal
578,0.7020733630594438,-2.446126884948363,10.834959185096524,-45.31156729717786,26.75508118788172,-107.85416363419921,Accident
23,-0.7123740931067284,0.28529933429657967,10.871135179305933,-4.797196183617399,-6.54410199559556,-1.5676484308619896,Normal
30,-0.30085330611469846,0.31929622938868696,9.671311731288329,0.7044312345560197,4.035612983186551,2.3681603840572722,Normal
617,-2.2673745004750887,-0.8524652937863915,6.329969486451171,-227.0005153117903,-47.15619199509747,-26.08099966534793,Accident
10,-0.23170884640623113,0.1352284128899194,10.458697032817163,-5.708445570667525,-8.03779932184487,2.4093303085924576,Normal
221,-0.933632596295874,-0.8550841963283128,9.954910355113514,-1.297733387919586,-3.2377090281757956,-2.5287335213096833,Normal
820,0.5883943770717219,-1.1996971863934112,11.940379093895066,-12.664438240773102,17.862473060429643,2.6975243920842598,Accident
296,0.44979993771662535,-0.01977757692832752,10.259538241493885,-1.5952696783330909,2.0919911044434185,2.8656390662060005,Normal
54,0.5154997612479755,0.1688013310376011,9.52484742307729,-1.1323944595076338,-6.7293546173660745,-4.341463659381832,Normal
542,-1.7595938086918066,2.6382511234122097,7.1523396377685815,-145.6868855435597,-13.630861231055677,97.91590025168037,Accident
209,1.9263657453273606,0.8482281841450191,10.67478837159347,-4.8726465233532075,-0.003542972883229586,7.8170667941605405,Normal
604,-2.1888074094222283,2.3463900045943777,11.812081268018295,-87.37132747429865,32.018868442142015,33.50079681019972,Accident
692,6.844955509616528,3.654584135262768,15.852287381844352,76.10449954395867,44.48176774738326,26.531813370061023,Accident
662,-1.3772709306569753,1.1200456791341946,11.194062740070773,-45.24610942991923,-7.356542608341269,0.5890145138853707,Accident
866,-1.5776390276856116,0.9585740123488663,10.423107198043846,15.273321931496856,109.05831801058002,-52.570796982244644,Accident
70,0.18069780275420697,0.00920918959477585,9.776539710560408,3.971323398109136,4.826987422955853,0.1911899748001417,Normal
543,0.672649212872379,-3.2321282309542747,12.898943063512045,-47.81341466038857,-65.02588722692519,-15.80963742367725,Accident
107,0.08728890641591948,-0.6223273516557085,9.273292218413173,8.123392292347804,3.191959628041915,-11.027830285495346,Normal
493,-0.43064210066413183,-0.3409921239988993,9.892275651598519,3.541519236005319,7.21816001734407,-1.0610448495057585,Normal
590,-5.453937676161464,3.205138001082049,8.704138724466564,-49.087008429023555,-145.6608222241613,-44.254179627781596,Accident
741,8.605209167000305,1.5638397150414436,14.676202799195162,39.664401682205664,-67.39461041010611,-79.40624053830584,Accident
292,-0.29468237847210577,0.13578941859768673,9.796964544230054,-0.800663977833202,0.4265907128251203,-2.0649891107171703,Normal
289,-0.3113497599102969,-0.8304804667579957,8.72355470352376,6.702252230115723,7.1118493084925385,0.9071331005698569,Normal
652,-8.720964657964924,1.3343214234947842,12.258332604776934,3.645110491351865,41.44813616239806,-10.47406441009012,Accident
39,0.09843061793456176,-0.2884459347615744,10.323549151306079,-14.361311066408247,-8.84537952444559,0.27467055499924364,Normal
589,0.43076380951548054,-1.1886890343052796,10.837914106341566,-86.38739582251895,-57.08677359257407,123.22591838559089,Accident
307,-0.29578569441791497,-0.23937431083173866,9.795440501677898,2.543625116149669,-0.9159830936019393,-4.165280285003793,Normal
679,1.5468842653318693,-0.251153879547636,10.971363415327307,20.105331859048192,1.2558236766206705,-39.89071166307611,Accident
66,-0.03600506079016692,-1.019062267588927,9.152659262139547,0.3349535861243596,-12.194085791382145,-4.979076973951146,Normal
275,0.23105173713163538,-0.7851123599452282,9.870858456819953,-6.600112556103529,-5.429125644425927,-1.4243774668483542,Normal
67,0.5017664489460121,-0.504043155458702,10.38041339368926,2.5796960885204974,-0.6713958109315208,3.2556812091182854,Normal
318,0.16208317624422106,0.04114199463771209,9.495243898920359,-1.055651194138472,-2.791508769730153,1.9689864910812576,Normal
548,1.2764697997206909,-3.3347407485406535,11.686971621039325,32.84400682620932,89.74892038354017,-39.356552389558644,Accident
998,-0.549451413159884,4.930134467413602,5.490967746822894,64.64289515216572,-175.55059758560193,37.436033770548136,Accident
714,2.2068659917372404,3.0379122289322154,12.136474428992257,6.5022737644959,28.831471601446413,31.56639883873755,Accident
753,3.1743549752614504,-1.3446738489004484,8.725124483522691,-32.55081956034998,-118.63875455859345,-108.4776275887971,Accident
327,0.39583134698146794,-0.26143001357663415,9.727956222139193,7.05466189873135,-1.935498512372005,-0.3100200468301587,Normal
382,-1.0619478621549034,-0.24471972125911107,10.878654106632752,-6.17174435939961,1.718939407749427,-3.034325889285877,Normal
451,0.47757116025061913,0.1760276982571484,10.65110747231762,6.309607503569959,-4.159111041152224,3.887036763822556,Normal
522,-1.2342798213480073,-2.896994410569624,6.444471805276024,39.71200941871529,-14.87395847590166,60.27355708019446,Accident
218,-0.24268177391455173,-0.18180610610692793,9.382326473370123,3.5472590856951975,10.498608945832578,-2.9617797782602677,Normal
787,-0.6350009457935306,-2.6557460583726673,12.557065741256217,-52.052786189470694,109.07012108306718,155.37964758050396,Accident
436,0.8143077727856459,-0.5106164085653566,9.675654436908227,1.2686983074728673,-0.657362978358339,-3.0199031298461474,Normal
764,1.996250471075336,0.6772845693352632,11.820521569410289,-79.55428174398338,95.28686838187815,8.576636963210692,Accident
88,-0.2648801018835194,0.4151679082721228,9.670478927089649,-4.137951103243599,-2.266242045115067,-4.000192821988232,Normal
63,-0.5981033120403354,-0.16301176608392057,8.93014311061095,4.420226981805248,-0.5161087646624811,1.2769187783715854,Normal
826,-0.007211522756561532,-3.5285200096643417,10.213395194448422,6.760411655429007,-41.42059577777758,-8.721873597077105,Accident
716,-4.969869623033322,9.729278908784199,17.569942309685864,191.0697594296351,23.277178410995436,36.03965790224278,Accident
351,0.737678108474776,-0.27773855958012733,8.89900978120999,8.87655446304756,3.0850297478834876,4.1666695589015355,Normal
936,1.7212332630132394,3.7485147021184764,15.520326829897336,0.25181815250613065,-4.563293348235341,98.16276776390978,Accident
256,0.6334555745933114,0.2466589504404446,10.636286193418853,-0.6872425731384593,4.434436950486502,0.9751249201406337,Normal
635,1.3290063913421255,0.8004551888862057,10.835270839435383,-233.14047918535528,4.018215933254435,56.562588768862796,Accident
644,1.2967888519024664,-2.4330025908865345,7.443267524729796,50.9859746418458,72.63698509016392,60.84048956673141,Accident
554,5.204809727510425,-5.520233233517258,8.94091404087343,-6.35107395245623,-97.32646433085677,-5.085883134889717,Accident
959,-3.5149630419526856,0.559248509232139,13.98615550427542,40.247229489899745,-16.27689128642439,164.30549520692765,Accident
168,-0.12269405800143525,-1.325484904196506,10.097377170832644,4.203100132522765,-1.1700992955349068,2.761499688397616,Normal
917,0.6234075220599402,1.644958882663496,6.1513148467368985,-30.05069326124285,-158.07706399132957,-149.87530431636935,Accident
528,-1.5294200795726476,-5.495046741618078,16.795614336289024,-4.2485441357528515,103.0460579881902,-14.340082028552942,Accident
823,0.7739279436635427,0.5475030917976402,8.769962617586959,-1.1279172725337263,16.82424321775963,95.75287590090818,Accident
985,-1.5456551814247281,-6.246296109566962,7.215732125510003,130.8638244908652,59.61206914278539,-45.53185589380271,Accident
816,-0.16171454701721746,-1.148451568838906,8.617511703140885,105.63312078270673,-120.80329695882017,-65.18048022588385,Accident
86,0.45770105885103707,-0.22968044977012206,10.315141727015922,0.8822077763861259,-2.5407009882365545,-6.596235972993837,Normal
432,-0.13470341722227888,-0.724006950208122,10.230236744179873,-2.326552283900267,-0.1177607543711906,-4.446204141141622,Normal
184,-0.11173139266292545,-0.6110639044459727,9.305185931714831,-5.895198955799012,-11.059309556647534,1.6752901454205875,Normal
978,3.4607710299507763,1.7043096153859383,7.816514793422215,31.168361927359026,-38.585085674904235,19.18861966794373,Accident
534,0.17695266476879212,6.287530505427477,9.571857536751738,59.39671308740962,57.25873929366723,-12.833550558027817,Accident
294,0.17850774298252367,-0.5405282702041312,9.840914679273784,1.0659831411884457,-4.152222032782826,-0.1571958518738821,Normal
892,-0.22191859078313408,-2.3998215201058026,12.973020630044605,-45.555981959368836,8.228686234586727,-111.92627425475804,Accident
425,0.6843157787661743,-0.7615934523918874,8.816821705312,-4.596922957932117,2.5712737800891743,1.2612019821333869,Normal
713,4.569715865136775,-6.397786878464508,6.4219896850198275,28.55782074135409,31.94540813753047,31.843857320740998,Accident
260,-0.4634652357890415,-0.28781891311888697,10.079163456260861,8.199822646856965,2.1836927586675476,3.147647921109054,Normal
237,0.09322715738471382,0.49134549197275695,9.523205879146003,-5.339014607895965,-4.769697096983224,1.7116891724481074,Normal
559,-1.1870421352687917,-3.897649090337473,11.288964089962118,52.432306388018965,-33.911203385788205,62.00920972712688,Accident
583,-3.351559385121007,-3.668685058666692,6.265078348044729,62.72022234485984,-85.54035950040641,31.290230154618097,Accident
445,0.33483627441501923,-0.5350423831630763,9.474321553104087,-1.84805168021817,1.317436076655298,-5.738456949078337,Normal
867,0.533250318804094,4.960851805476855,12.09722104002041,-2.906448643387339,-24.290085831840077,-55.81751231185959,Accident
800,1.0156586288577427,-4.165627661493633,10.72920425481547,40.561621770828545,-16.693469697637266,23.61860600324825,Accident
599,1.7395718558853965,-0.6824287798602233,12.216836896152866,104.81535264647177,5.4457815398896825,36.71952013394328,Accident
849,-0.4109864683273748,-4.299455443574136,10.31771727906042,38.348876274353785,2.722366907734479,-45.23143762283212,Accident
265,-0.6238915909824247,-0.3515882125629437,9.09314275154751,-4.216232976580959,5.962537562389874,4.10172006306228,Normal
995,5.805462120180687,0.08537274354947663,17.032131263416467,-3.9172024686760203,-102.05461279965853,13.717545407231276,Accident
529,0.10332303511752405,-3.1539297349180337,14.406385375854358,-44.07854428305996,1.160719941012331,-8.800439896084118,Accident
55,0.4656400595580993,-0.2059384830612337,9.464188316030976,1.8368275340808904,-4.096289298607489,2.6731454306121765,Normal
120,0.39551597352152346,-0.39523722772265596,10.352762966478993,0.5663520526888223,12.06307710806458,3.5225326991236154,Normal
215,0.3794846102466337,0.5516509410082607,10.423871036336868,-0.4526664115208039,1.3293911482602425,-10.50013253825812,Normal
25,0.05546129485493304,-0.9024410503322595,10.018161834837016,5.44374309852093,0.9192477237684743,2.4134394360460636,Normal
72,-0.01791301955497577,0.16346368688208132,9.838410945530129,1.4677896608331464,0.4432879548071872,-1.4983832400339354,Normal
44,-0.7392609951837137,-1.2358222500636447,9.71368635002959,-3.011060301808903,-4.112099661911003,12.133582431727612,Normal
247,-0.32666461628685595,-0.3776914661766613,9.41501338447068,2.5054708496992264,-6.651568128694949,-5.755070418097535,Normal
721,2.2724854480124566,5.109517829754113,14.5343231273451,41.43958211131615,1.0760291695434405,137.77240782465557,Accident
281,0.33106533726052334,-0.6676721793550506,9.723765081809729,-0.41552786314347384,-3.3878232616782755,-3.2488261342413356,Normal
893,-0.2269968129774908,-5.724006411369922,10.40182350534929,-9.921710991199763,11.947352884790437,-121.62294337924877,Accident
914,-1.6503458488096165,-4.497047881375204,12.601378894241186,-101.75352008901783,-56.75449258627807,-18.793941721677967,Accident
810,-3.5456223762624033,-2.98158802450456,12.13307639254682,60.51906834528787,-21.792801328294974,88.25740576429266,Accident
244,-0.6001482035278881,0.2588295102345615,9.475361227466998,-4.636765670952871,8.086062874843119,-12.647800388471515,Normal
822,-4.646881575160425,-0.13467909036761094,15.66084868925315,-67.65384835952904,86.73585952348341,-89.18577498819315,Accident
321,0.2975785127184568,0.70467372009279,10.064846377178366,0.38425941479384107,3.8946825175605704,4.225789855921608,Normal
643,-1.8084619673518847,-0.10502283001870771,12.934958568014334,111.12194903702093,-32.59680858332813,108.735159533122,Accident
158,-0.5956517486013243,0.09904238038392747,10.290882743495798,-5.032712826398206,6.408218975018843,0.859196698967656,Normal
977,-6.316940825520973,4.341917098175419,14.26969402473942,9.265966978155687,-1.5835475616566377,49.84698783112761,Accident
429,-0.8793697432115571,-0.0328751305364939,9.66159335005554,9.791737271102969,-1.6703861548997025,4.927248428076092,Normal
941,-1.8423676950249486,3.690666526952363,12.669459164243092,-16.450228291459812,-50.65851173719817,61.71214359230133,Accident
462,-0.3498627539962928,0.09826058485073506,9.695488371356989,2.6056121418966915,2.411244763403286,-2.644888540320076,Normal
309,-0.10109632621694703,-0.44730365110975195,10.037349116439977,4.475191570380577,4.4382771293691805,-2.7477013729776747,Normal
697,-5.649450624175751,0.9978225309725927,7.303055905183211,101.80561303428556,-26.951610142811084,-59.61342162538804,Accident
60,-0.23958711892264498,0.14488742844820646,10.185849355324173,-0.10683647174218078,4.2544898108398606,-5.069479761462689,Normal
884,3.317701273071927,-0.1922332924461499,10.177583137139077,50.59633733138406,67.38378616111221,-118.30216990770285,Accident
595,3.8383947949732535,3.439322611202183,8.904134273716696,12.647138025854755,-27.673546323773657,-139.42175791048328,Accident
767,-1.1340236970546516,3.910523795804277,6.0134046586447845,-20.22106040769483,-43.83242433655481,-6.392676213003976,Accident
649,-2.6899266819456242,-1.2933767087252972,12.730590612559034,-18.350586548437377,26.046225342965606,75.09120181431557,Accident
650,2.5259510863563808,1.224158540510267,11.818788812409275,-19.889268301334187,182.066034211811,-14.088994716789012,Accident
865,5.859777412579705,-2.185384865041028,18.293818017397292,-134.77340617811095,-119.79573348845989,-47.98571151336492,Accident
668,-0.2898710100446692,-0.4264396108216383,14.95912951771781,-68.49358725294,-61.28966644885367,-138.4210184387476,Accident
298,0.40643105941948005,0.014159188065230586,9.933696157035952,5.380035692992991,3.2522504626806956,-1.798148362262312,Normal
689,5.488860605148261,-0.4551433007316874,11.810630960666256,-38.63278715684142,138.49357054138397,-13.460730759003322,Accident
314,0.6527394035771645,0.5159222697343174,9.805176309921691,-1.3426532395291615,3.3296212602723068,9.162785217396008,Normal
310,-0.10884060161361014,-0.09343582208067952,9.787486520627429,-2.4153052584171975,-1.6033381277859584,-0.5838295789762331,Normal
361,0.7663694565012888,-0.757872057498616,10.089645749800544,4.054041365798911,-6.763351429217672,2.4193832559401987,Normal
479,0.5597874557172884,0.3802073280721487,9.581270849838296,2.0352614356226755,3.4645931151580553,0.9990521685935674,Normal
110,-0.9593856076495207,0.3271828281770289,9.704658799618327,-1.4590563445777205,-2.720570010570963,3.2576099566975287,Normal
989,-4.792797508786297,-2.3238449100557457,12.003977066203221,191.3687708219194,-30.75655031816733,-31.518934499449635,Accident
486,-0.3232864421212633,0.7516991508835753,9.090817133533484,3.6254789342399856,-1.935653248947573,-0.6135446679786207,Normal
363,0.20085586104947073,0.8979388365477609,9.313465529559222,-8.742659866190904,5.563441874949627,3.40679755221474,Normal
254,-0.7596849829770067,-0.4746994444159715,10.413834496236646,2.5560129976249035,-6.2619672220655955,-0.369737828041963,Normal
259,0.3873170267146684,0.3501549397044957,9.772115461171147,6.574572267920237,0.9947407339824726,3.113556119501343,Normal
802,0.649874926213857,-3.6518480766614383,9.077634461350895,-111.63588038040575,68.63190602330744,-32.8414786183784,Accident
677,-1.50420644065691,-0.45072896639477994,12.920943218058714,88.46664530357701,-148.24147863180553,107.61180963619317,Accident
494,0.7615620386348286,-0.5008100049474578,10.57105497628394,1.7572410377079146,-6.282534471396282,-4.759592300111178,Normal
670,-2.8372381820903434,3.0883724447950716,7.371590345271301,52.184492128818434,24.791582350450764,199.79321011358832,Accident
377,0.09167100286917587,0.11189397581944925,10.31995234369804,-1.0461093687226388,-6.630238430410191,-3.3388977823444312,Normal
526,0.5712716697751732,-0.5938131869540456,9.656530865606658,-111.02948403646415,-82.55730270777435,89.49058673233694,Accident
845,4.8854056643169645,2.4846890705538685,12.081940139554316,42.47805295712724,133.98877383312518,-43.61489957810576,Accident
137,-0.1610307581028378,0.036658983594201944,9.186196092431505,2.1179953279673054,7.745100757475937,4.706552903837417,Normal
355,-0.5012646823189044,-0.28537314687473814,8.504478853927546,-3.3531010453832244,1.3062526561692802,-2.56598182256698,Normal
365,-0.20061023594291813,-0.19385077996799208,9.720735213486515,-8.312459940178371,7.6686385495824965,-1.5390423556944204,Normal
942,0.42294809883618,-1.7909228601632217,13.655657915466461,6.626605641447992,-68.04906023615582,0.08879557498345172,Accident
749,-5.573704354194861,-4.422396396126317,11.82744674098361,7.825063447464591,33.911158595518884,-78.11200389310379,Accident
948,-1.1630997492256836,-0.8399799056234392,13.442233739303951,-30.853810478227857,25.597215291613043,-133.34107254313582,Accident
829,2.5042539789746465,1.4427242782466863,10.7946149191751,-84.0498657462241,-139.7516553076444,108.97059229480634,Accident
656,-3.7122799146677172,0.021535400723825825,13.579610051016921,-25.223732422889952,10.98819835256288,80.82196694688125,Accident
199,-0.5714851489153115,-0.09245106822149451,10.482070214986923,0.8979089096979898,2.43936142435537,6.644666597677048,Normal
213,0.325695625652899,0.19956805717603543,10.247462188472221,4.237108385752108,-2.260451664165402,-6.996530874009707,Normal
408,0.06014781585594943,0.3227420905705377,9.638660080578934,-5.969625031995277,4.05698277245796,-2.2500642899790684,Normal
332,0.03790227909686317,-0.5020703833760339,9.693278564534896,4.765683169566225,-7.589368733404047,7.814443842540989,Normal
208,0.25752384315302396,-1.040964703941861,9.098697364100154,-0.6631687319128677,-1.5652901526157716,-1.7570711785686628,Normal
613,-3.628430806256416,1.1874593432877694,7.408615770769869,-40.989939254135486,-112.3391653009271,7.4526670159793875,Accident
78,0.04588038826775115,-0.7392931228899208,10.550379895317157,-3.672957883990246,-0.6972313784049977,1.403182022450682,Normal
29,-0.1458468748966384,-0.4521583125522043,9.288603717400798,-5.598087166445056,-2.4581809281602367,-5.654442176629578,Normal
535,1.3406175024080942,4.7833271752475905,14.870109559156976,-51.007003366077114,191.54895204659607,200.07203983474253,Accident
695,-5.640030101723291,-0.9452601935823259,10.512365483969552,-15.855654110377591,-34.292362153322664,41.91684096613878,Accident
557,0.6131670948089303,0.36923460496854343,13.345907293543583,28.813134715661356,1.5566604415106493,83.90913135002897,Accident
836,-4.097472466246317,3.7129612725359946,7.016749753298482,-37.47968906882526,-41.00272885172401,-152.37397547723708,Accident
596,3.125173992176554,-2.9201365140811038,13.786472692917773,-22.203540505244128,71.13230598302448,32.75508245138018,Accident
165,0.20639046346824916,0.05321511384594842,11.019876203169638,-0.11434031149441061,-5.075470959139343,-6.835689032301229,Normal
918,-3.877876041456788,2.8487837140934644,10.947451709770576,108.0891271989372,-45.625125422917286,51.6712336220714,Accident
495,0.26945502184232933,-0.14055014644297745,10.803046444079563,5.3507511915821375,4.066025933739886,0.38740259259431264,Normal
824,3.3116320299487727,-2.010345601362699,9.712442282560206,-5.0118577697457205,15.871481374198934,-47.751582778557705,Accident
65,0.6781200142854115,-0.2040376865107757,9.24016505268693,-1.406637785591067,-2.9137932880579105,-2.040504195801103,Normal
141,0.653571377141214,0.8345107626446965,10.48785340665581,7.061102777077146,0.2544385092800903,-1.0902294769618692,Normal
925,3.1918229626825685,-1.0091608362334088,8.601645146196764,-40.09872862321701,52.47137102300661,-68.85833307162707,Accident
827,-1.7678149553679186,1.4626808912601559,14.701599231994775,63.8395639689789,17.424187179898087,2.750024722116807,Accident
655,-4.893827446382836,1.092420888163984,11.348606775161393,172.39429419065135,-0.8693709627977715,-64.46397239073637,Accident
331,-0.44862718574291577,-0.4593259732420991,10.409380925848659,1.1660806563175083,-0.35799625929033413,-4.622329940647772,Normal
664,-3.463088004698953,3.578205496249243,10.701678349234834,57.473393877731276,63.568030635616914,-39.010673676397026,Accident
249,0.20249085548047777,-0.7033305484241111,9.022052176898187,5.005230462835706,4.608250559622297,-1.0223561049306076,Normal
907,0.37853371098590155,-4.220445028492614,10.845171334769756,-92.2793940787827,92.02139167186368,-231.96111038947856,Accident
708,2.701195765185191,1.2722005845553537,9.429444404616602,76.42153897657644,-82.0694484775581,-61.87646752267441,Accident
305,0.058663691654391,-0.15458606173431969,9.350766009104483,-7.920679715027449,15.549592780026805,-8.881231667332258,Normal
734,-3.8413667130074005,2.379527064656032,7.31089708028624,23.27578914715883,24.626589801110796,-45.92660616698157,Accident
975,-3.853752797099908,0.5747321885822688,13.542187657274328,-109.9067859918928,130.93919694645118,-51.08686601160241,Accident
49,-0.881520077681367,-0.3019925933579103,10.490045677073727,6.134666119421538,0.7759534192948957,10.442213864349625,Normal
896,1.516767725507624,4.180363582573294,9.29798585246256,-135.08041504548,19.170201459119834,-125.69218808943064,Accident
2,0.32384426905034625,-0.6992837869095706,9.829815184960088,-4.090994417111536,-3.9620996049998065,-1.6565419159166137,Normal
544,2.1438293719098542,4.129489350058614,14.797304612864002,29.61695119533928,66.24470519146473,-29.21927819918772,Accident
350,0.1554537827990023,-0.3115702632123822,9.214943486970322,-3.2311365492190154,5.299681920233109,-2.7413439746253854,Normal
904,1.3079261685001375,4.844336372129554,11.624476714850507,51.56147933162331,-68.1231983823455,-71.49968152669715,Accident
536,-1.0276476025732948,2.036840963286699,13.550839547245113,17.334649517142896,174.80759160288898,-84.45115918388771,Accident
344,-0.2355191528091614,0.08322610410652805,10.274777067720663,0.7992819599870018,-10.766714599356222,1.0838778188131455,Normal
994,1.5344987260855842,-6.195249138768961,14.570107440727668,-52.58980431957795,34.46899352120299,69.0822594017217,Accident
481,-0.4777702203002129,0.21272878089248237,9.613583423954116,-6.898090823944653,8.596889531036483,6.361767500533839,Normal
575,5.454185767673474,0.8608675629051261,12.339421371159068,-17.722927806699055,8.063285811584503,-156.5870871307192,Accident
33,-0.5288554644779502,-0.6055080998812283,10.123597969851371,-0.7380129314933435,2.5273507958331343,-4.5934325574304715,Normal
31,0.9261390922544689,-0.8307600311344799,8.965707963061206,-8.842196827814258,-4.867730998522343,-4.631905649907692,Normal
231,0.10822929479098743,-0.489186388807516,9.115098510210462,-1.7465839805909875,3.953127995813843,8.425071393542547,Normal
963,3.070591932556034,2.3065190279066905,15.488515732604958,24.723795442612314,-59.84768516973177,-110.04087116549941,Accident
192,0.10704687206510198,-0.5405316637999487,9.499316178024394,4.356486487286221,10.121548116434262,-0.19653643813815594,Normal
333,-0.33858085575605584,-0.3838987825520642,10.545363068424976,1.435620826009121,-1.785146004033047,-1.369965409146521,Normal
3,0.7615149282040127,0.28148461834528543,9.476531611147214,-0.01687228705476026,-1.5398076481952014,-3.0611836725387516,Normal
204,-0.6888346839785455,-0.7783145867619519,9.824430035162854,2.049093284642563,-4.782181884090043,1.2465429782086443,Normal
514,-1.7507979790380146,1.3043101936706734,11.76279797440633,-14.233430064351854,6.128725636132769,95.64251104693675,Accident
799,3.411943627094188,-3.047636480969935,9.622429658654362,59.13443957612543,22.303984990836856,-51.949185569110476,Accident
306,0.6388324478942125,0.11106688581685642,9.814090578684565,1.335633255057417,3.0336152956809137,-0.4029987464838044,Normal
109,-0.03722295788308361,0.7480221557445915,10.757015676933394,-1.2617675106314379,3.0159371554117156,6.374375206393611,Normal
430,-0.5916292563328875,-0.2775997633465992,9.95370334890455,-6.147747972262084,2.8230296294680013,4.3457729624844825,Normal
77,-0.14950367523293373,0.3854325969434834,9.585942419517044,5.823696772285857,6.019422185844081,4.98429386732904,Normal
84,-0.4042468014465938,0.09093312752924758,9.990967726115777,2.1440825016528646,-2.7526842474579176,5.482346169054418,Normal
286,-0.07589254751779166,0.41696107727445203,8.881897313448352,-1.5460453852493172,3.9169525464129773,-3.8499803309872864,Normal
82,0.738947022370758,0.3163909330531424,9.63918247439131,-5.079109094891985,-7.219274080667709,-0.2656032650877267,Normal
991,-0.6403703380513147,-1.4137912221075588,9.127293134954364,54.65784118310464,81.72983872584311,24.511158565873124,Accident
789,-0.8641166217662292,3.909834111948191,13.81681869789394,-13.62065974367244,72.8334799748456,7.56968357354864,Accident
894,5.917626530369424,-1.1791582711842028,14.518991593293567,-85.13760054538791,-112.88454648528655,36.07701078211815,Accident
398,-0.05726992262630894,0.6032544832541784,10.400206953972214,2.804597239706194,1.0363366469947197,-1.437237597001778,Normal
323,1.0461936378427301,-0.18141928021982953,10.043250821913102,-3.2500129041172987,8.372462166737687,-7.025949234017875,Normal
519,1.6552223997327613,-6.650456518062193,11.73572626791278,-71.82640531405035,31.85178120980297,-120.22964869459115,Accident
916,2.522203446388648,-0.26230598633154323,12.786200427260177,85.01258326300211,-30.596191813543218,63.82805611057111,Accident
922,1.2775309758894873,-1.0392795180206988,15.76621082837969,46.99133598448098,74.07800805716934,51.5299014280087,Accident
5,-0.11706847847459027,-0.24356269188234803,9.996742692710875,-2.266140246636376,1.066468536864693,-4.127052649894775,Normal
731,-6.07742361933413,-2.4845888188957037,16.066718807131046,-3.990412330249416,40.49261243685699,3.4432696680310118,Accident
465,-0.11048479976661149,0.7200586077247364,10.094289202210305,0.4479034062762441,4.436454186333711,-1.2942720018491582,Normal
97,0.13052763608994467,-0.4893818578911537,8.800899657733947,10.287477348558493,-5.3592861652007775,1.0564184613973635,Normal
266,0.8162056519658176,-0.01749424524848085,9.744386969325651,10.85471358748907,-8.892937920032583,-0.16806282351856505,Normal
357,-0.14432931946006916,0.23570777819320204,9.995902002701275,-1.2502325729947639,0.7169423367112554,-1.152623125901254,Normal
868,1.201444159518986,0.4196616985173821,9.982543211980992,11.754823870935024,-39.110889523495295,-52.27703165798458,Accident
798,-3.460051531787878,-2.980076098745852,9.046035645458213,-164.02859658273601,55.70582896642588,40.80994890000599,Accident
380,-0.41986092109038803,1.2634662129368108,10.138962935669635,4.824258165487288,-4.818794631053055,-11.191156166624861,Normal
631,-0.11271193493844381,-1.9028575430682093,12.006863808430513,-43.14440115706163,67.50716077133899,69.1859550792809,Accident
381,-0.2996963227220111,-0.2654343864601603,9.55604429592715,8.077914117741159,-4.785754574475215,-10.603500763175331,Normal
490,-0.003986320658308686,0.10419140397377624,9.524070927053778,4.0020476261384115,-0.06918873047118625,7.581970276267864,Normal
118,0.5714114072575103,0.2405046158683566,9.900549523357485,-2.1317879810277165,-12.811668293976552,2.2864020230762057,Normal
900,1.4742883581605994,-1.6683562402823418,13.461915711134985,-31.350141230949312,-95.02121919340215,-5.617628921409326,Accident
250,-0.6304419771675226,-0.46161662305545215,9.96544011610723,-13.516161464996186,-0.637745601887671,8.77737849157745,Normal
523,3.461702202767242,4.887499094702836,14.350768994395821,166.00520314788332,-127.9515809755449,-49.16310269528759,Accident
9,0.27128002179298233,-0.4154750582055189,9.532382394219717,7.387650405276309,4.687850688132792,-6.61228978371785,Normal
196,-0.4419287181005665,0.163066511121059,9.79018110053666,-5.001656623027873,2.129436030965179,5.408833638364143,Normal
603,3.211831679937559,0.002048456872447884,14.658573565754388,104.93547594181288,6.249418818881308,77.62529614306251,Accident
81,0.1785562857558732,-0.20764395695040064,9.625371147840786,5.743186747143576,3.006033744645574,1.9457959783396437,Normal
783,2.6293669365088066,-3.51670126030992,14.919304683045215,-78.27996366932851,47.96620329962846,167.85771796373976,Accident
587,3.65691236938099,-2.7543809502497245,12.239404452176199,73.51318837266635,40.401687061901356,-219.13121649099782,Accident
797,-2.8365206398281937,0.6362800592225257,12.378803208702205,-155.94974042579386,60.70595329308874,-20.65401104251475,Accident
239,0.426216667398112,0.5071850325090652,10.61419831156427,8.553066862909626,3.431592284783504,4.269879882761119,Normal
290,-0.10406112517863761,0.21480910956629293,9.994289302265482,-9.375862348228722,8.694498318987895,2.9751473291778234,Normal
211,0.5677828200902995,-0.048356555935196194,9.453547401102046,-0.6019058197679912,3.022576631776834,7.6618386233905795,Normal
717,-1.5733444087879556,6.923748751848332,10.554702086719574,94.74053161569384,-40.56069274160446,-20.940663217687565,Accident
359,-0.4136154717761615,0.3164659088777554,9.89167995988958,1.3016091938561036,2.0432640574033543,0.9705381547667885,Normal
449,-0.5296067609444758,0.12166972466134592,9.810635788368032,-0.2569686179424312,-3.452705261581297,-8.1523662185757,Normal
227,-0.5388723889646531,0.17379085268083552,9.726498999185756,4.040288991405726,-3.0021178286935255,6.707379577654406,Normal
950,-1.4329367478120156,1.5458829648734023,10.515103558895781,19.21646751569784,-35.347914179265906,10.92779164710019,Accident
946,-0.3345264814288311,1.612889708849639,9.3652102415296,-59.18169311783738,-107.98184555049849,-48.09012421350775,Accident
796,5.029179081624609,-0.49300561765617357,8.834731895469915,38.894783324955114,6.365882795373267,247.8639547257006,Accident
501,-2.581155032338506,-1.8819403378539086,11.906389533182749,-108.20069515525779,-36.273128670708324,42.656585431945004,Accident
464,-0.05616402484541491,-0.04486784714361336,9.50973827509764,2.7780223300172424,4.345780321946366,6.115415335476625,Normal
362,-0.0543800742284288,0.7737526006650308,9.859790184207077,3.967443602761065,-7.611795931089455,-5.511460749182117,Normal
468,-0.26525057380526373,-0.020078975322171705,9.202058468982408,-0.9745414017634051,3.416644964055347,-9.103016502742586,Normal
935,2.667111366839676,1.1649360162703488,14.087591517281357,43.47126622974477,-49.03866170165516,35.33973891020458,Accident
428,0.5292122434247939,0.7827620146171702,9.689373188207115,5.504798174992855,5.621766799352513,7.890590287810922,Normal
7,0.3837173645764544,-0.431995384839908,10.117585900840986,4.776526042852554,-4.085443155340953,6.223397903683933,Normal
155,-0.3571757090131839,0.02960921700724413,10.304908544671317,-1.4770070506951472,-3.081807040197387,4.272626135333079,Normal
541,0.47091888290530265,4.353004314394008,14.297634838441844,155.61560594215464,-135.3816665314663,133.5938225123711,Accident
440,0.19203272446965364,-0.6401521993354472,10.131440634333707,1.5402526975205117,8.747919521027104,4.982852552897236,Normal
482,-0.8032231601287863,-0.4834880715646065,10.663481925616704,-3.1335861229498256,9.962576765840591,3.662460513899011,Normal
422,-0.12448207423953675,0.066484837073438,9.617523635228558,-5.363715128699033,-1.1469537203401388,-0.9734864805834085,Normal
778,0.23879358712810916,-6.2267640272356,11.795629724496141,-87.62164150742437,-62.069985853318705,2.3352403148453957,Accident
949,-1.2408469968889282,-3.8370922086593593,16.490131222337943,34.76021168730446,-112.55547204105355,-119.58049171597153,Accident
334,0.4875598667088756,-0.01734244369339059,9.874333728601057,-3.0621868732021893,4.451915817598931,-1.2169198968750903,Normal
576,2.3254664821043494,-2.4958647524833535,10.9106500165333,-94.15696902159745,3.3029964469951505,-53.45144386622135,Accident
934,6.817304161340646,0.18025798384549083,10.340730549257604,-36.781169266438106,55.03463776411425,133.8753508498388,Accident
567,0.05520489235031439,3.222954038146684,12.891732820140373,-98.3346878240333,128.60626451196083,55.32948600971107,Accident
594,-2.591648881769298,3.7776997193603967,15.704255742134386,-0.6490561289400232,-9.208775513859132,89.99460362425927,Accident
530,-7.4649820602389685,4.492295049538879,14.586670535660932,13.441227242602281,-98.89086368243699,103.36482674612182,Accident
581,0.4210796095441409,3.9940171859652094,9.90540097616685,-78.76272403855745,10.873965377467838,81.84452442017914,Accident
707,2.4905754355878305,4.056608036601434,3.4361200112868264,-38.729479566785415,-40.47729591902843,23.90382242574095,Accident
448,-0.25693345866834677,-0.022793008177748902,10.419141535716818,5.630251253860841,-3.9188283279319824,-0.9344807908099242,Normal
453,0.2520232577589222,0.7218823020366297,11.100841557090199,-3.268831693244099,-3.578799945553759,7.6050311357969,Normal
228,-0.3576518546299841,-0.26987984015468075,10.281939558397456,1.836436567006703,-9.33269975680308,-3.7124211626919204,Normal
352,0.4288298116010097,-0.31869356365325885,10.070731364102395,-5.9681841587824005,3.4178466160023877,-5.524313965312601,Normal
728,2.338047011715997,-3.5990925850959243,12.829744516773147,127.41359986263072,48.01703725954222,10.86875392653255,Accident
212,0.47700088174660116,-0.27245954340447487,9.440796367215402,-10.863347730070181,4.411665311617046,2.499320618701857,Normal
79,-0.9937844573004464,0.5718770216034645,10.225110871056748,-4.051262185071905,-2.250946324257058,8.793102420975668,Normal
148,0.2609707828084488,-0.11546726510433898,10.597252531612487,5.9369302578237555,-0.516273800745237,0.07809166974801524,Normal
302,0.3736468025616309,0.04806038847049168,9.712520121652297,-3.542033834552314,-1.919856359761758,1.7490001228395378,Normal
628,0.218041572988024,-4.628404545628937,9.79439689571026,87.68559259819187,11.967836601503043,-64.87151489601997,Accident
777,0.4028894917433786,-3.685331493797288,9.100236327044055,96.19609983864578,-101.02158205588512,-28.477926750866622,Accident
506,1.458108868252911,0.9689235108530045,3.886825105191674,55.237814889721044,83.8786120840474,-84.09760238260021,Accident
342,0.12248328555436139,-0.5613610107811493,10.018469084873175,-2.7436245387048075,2.4600942399639965,7.3846721305913725,Normal
485,-0.7111268547988371,-0.5791823445962714,10.266295415936545,2.565427100486465,4.29793943489901,-4.800231476397318,Normal
711,-3.534122602129142,-3.9474474492825213,10.385856724529585,47.40242458542091,-86.28101930916777,-82.89148575801575,Accident
133,0.2367962153175908,-0.21344053497371002,10.02676715075699,5.149804087905806,2.9590706687068904,1.5565433672144244,Normal
703,3.8365974399401797,-2.5107621113888396,9.090768841095976,46.238281891164576,61.66001676950299,-48.30871449895638,Accident
311,0.549388425993595,-0.21986552913708746,10.208883149600144,0.7339650599277469,8.976056779561612,-3.177789207022017,Normal
722,4.11160843199014,-4.914087172308051,11.983319119055789,2.096380221922853,-17.988244463588153,-61.36539643202404,Accident
629,-1.2344794336865408,-1.8982650896551172,16.968624756171888,34.02570466640883,7.826173976633814,29.34512346283538,Accident
0,0.24835707650561634,0.4630887737658207,10.499677718293002,3.8918053808331887,-3.375891374871908,2.853064986097655,Normal
316,0.34097648564748195,0.13352513293462942,9.267443168462314,-10.759077006646525,4.194702502348061,2.410333636676931,Normal
706,-2.317978335812472,-1.573701041301153,13.482191756926559,112.55477967134006,92.78719731106754,77.89809846818942,Accident
547,-1.008764216043216,4.3996225778358085,20.44396333341766,-4.591256240123393,-1.762789120341636,37.518246251877414,Accident
872,4.352782644837635,-3.2921049569131995,8.723636398954298,-99.56340000677783,-87.6976259894852,28.829497272388885,Accident
532,1.3605261376634021,-0.31029367287085174,8.546538790341392,40.06652728033693,58.48005014283851,105.2406632752083,Accident
477,0.15562507727176805,-1.2119396633144783,10.009766221953514,4.7376323106142895,7.266303316605171,-4.231579887328679,Normal
404,-0.22503273573962182,0.09554953400995167,10.298023842902909,-0.5365107200211444,8.367260451492685,-7.585868483358396,Normal
172,-0.0385508547070521,-0.17134379704017438,9.852100551975939,-1.9587907452191096,-1.5992376162742197,1.3022113166677798,Normal
125,1.0952278129049893,-0.2556078382155926,9.226827303490657,5.4002403285732425,2.73559557587605,-4.3054395508678525,Normal
394,0.5897200603606435,0.6910794955187636,9.617339224343946,-0.4418147960266766,-0.41718984895180433,2.5413431983729478,Normal
420,1.0303739624409936,0.536815874929886,10.069148039524817,-9.896499051878939,5.236588533107241,-3.594161938043652,Normal
552,-0.8656460876271144,1.0401299328147597,13.380814874946912,69.82594808045077,27.332818556210107,-13.810330743266775,Accident
903,-0.29653560371791815,-2.827674017375629,13.045785359582942,-29.861459675305127,7.287488500473054,84.81150549370159,Accident
90,0.048538774674020194,0.035783118609696234,9.76419937029297,-5.360695059928035,1.6337238230116002,6.187190673420696,Normal
939,0.8781464464255602,-2.317706246268722,13.500429099341652,-112.00565785464073,-4.803003335085161,178.5199128822199,Accident
181,-0.4285787782081413,-0.5645258856086146,10.4960011431723,-0.12097803195458083,-1.7872271140521359,-1.510227497449321,Normal
274,-0.49075432552397547,0.3109049811085982,10.406548849989592,-3.7123529284902412,-5.436229694314013,-2.4557687357105236,Normal
895,-4.157963827196994,3.0048954756256805,7.927447380474195,-0.7875846920306404,64.25237940912176,80.53840569816518,Accident
69,-0.32255987730256214,-0.17575674202065433,9.973251940865358,-2.645263386731474,4.631077011207962,-1.173102849787069,Normal
291,-0.2465004673294164,0.10384384358155557,11.046499758716395,0.5751303957370858,4.894290253908977,-2.787115265541606,Normal
131,0.034281487403013663,0.7647751597303069,10.010960377117643,-4.231783274954368,0.09808328846994951,2.3159239763379236,Normal
300,-0.41449750546103614,0.46914190298799885,9.465954773178476,9.505953428765038,5.259738088614593,0.9191725816125218,Normal
424,0.3226879747925738,0.5975233144624212,9.277595402989483,10.370413348749867,-7.6555375127786105,0.4587624222418643,Normal
326,0.5790554367500339,0.7897860728653562,9.330332303090623,-5.451995387214231,-5.458504380696572,6.234458577673597,Normal
144,0.12994139712421177,-0.12287153204297216,9.713464087858066,-5.311967640734398,-1.1160112731740255,-5.448165186711941,Normal
423,0.4857854754771777,-0.3500604074695866,9.380395166330498,1.1962343205557477,-0.21738474906931216,-0.3209408855424888,Normal
580,3.6015949754216177,6.374314209050885,13.900983074322177,16.757606691821806,-79.48716124752289,152.0214739448772,Accident
135,0.7749672025087697,-0.8274283359328847,10.28204358414418,-2.0182423162099834,-2.868008864484505,5.357715761174429,Normal
450,-0.03133954863658594,-0.12061802892816494,9.954416506299482,-8.865162341034408,-4.580959577406213,6.02997258273408,Normal
164,0.4816880646221609,-0.3564228913385822,10.311285216004821,6.484972732805546,7.902703432841868,2.316031460495615,Normal
28,-0.3003193449594025,0.12986125086074093,10.10675898636521,-2.4442471089313704,1.048297076373129,10.282717824147706,Normal
773,2.163406087636745,-2.2791093524408614,8.760791036172455,1.550499015842017,55.9135748064631,-66.88733361757012,Accident
193,-0.622869389355994,0.3079678034721319,9.959890967071269,-6.729898401233743,-6.815870022964052,-0.6724839220086636,Normal
388,0.4752119190930251,0.29532741534615464,9.816002074532884,-2.3691967353545804,4.450992055623934,-1.9251090585643182,Normal
852,1.2849500771257125,3.8881891853441886,11.252784466040877,42.4820875915368,13.405608464079224,48.98657712020096,Accident
169,-0.3768680821787448,0.5457534259612309,10.226707779390155,2.7336678410068966,2.3317918722316726,3.128154668230004,Normal
705,-2.0309854153755937,0.9228380045675892,10.121054171450979,-10.29275570816447,66.17888861259385,-166.86339511240033,Accident
140,0.11372996730206471,-0.1678923496450641,9.651218248320005,0.12109728336379035,0.8238042061825837,9.04653174866555,Normal
173,0.17057598740832194,-0.18572043299789573,9.76870343605024,-4.612050922492513,0.7587899612437019,-2.6942092809636913,Normal
6,0.7896064077536957,-0.2961969621194346,10.247596610013867,3.4819372372835766,0.006027376811121184,14.745472126543627,Normal
745,2.315760464510025,-0.5445094864070015,7.370645316171389,-22.807540563361115,-1.0643708302908248,29.339712631380557,Accident
478,1.5394404042276189,-0.7919514117428617,9.35625391109895,-3.8643883391180456,-6.693028998616244,2.717396893350465,Normal
73,0.7823218279070031,-0.10955026440443212,9.158503887905717,-6.782909023117025,0.9865785370279779,-0.2510230852087239,Normal
910,-2.024802056371657,-4.245801575772562,9.994964415459595,-41.460211108896196,-42.12253496768344,40.458834597823916,Accident
813,-3.0442784795575566,0.2930111302450062,13.150305094210932,-64.31587317819849,15.078060881448232,-67.34573054945218,Accident
238,-0.330893232384194,0.8327372222312883,10.084491539592639,4.751537959867878,-2.0351815646339024,7.770802103573871,Normal
145,0.3909114358886552,-0.13636178487383524,9.807789523790735,2.1415354860382427,7.449317193010411,-3.923809540638517,Normal
792,3.8308961582645633,0.771596911067782,7.547830005226994,-9.171266840511397,-119.69270505317198,23.796964249425322,Accident
234,1.0719720446626628,0.5145778186628218,9.398162716015136,3.99970950971025,-6.055859646403906,9.935305558497205,Normal
220,1.1573292833367543,0.1539008844460296,9.206200790485244,2.5655289908804138,-1.791700760106111,9.770787168751431,Normal
923,1.2546172676639162,-4.834702077308483,14.837608931052436,113.1349830664872,-7.286068828242178,6.559105105977549,Accident
500,-5.723422673632173,3.541922737356434,9.409519185105198,-76.70227649494198,-33.90077456181626,56.25140337760031,Accident
132,-0.5311518568630524,-0.07900394928949471,10.606855634529325,-3.21774916158731,3.3643061798340996,0.9864613281560322,Normal
990,-0.9810519528293133,-5.067549113901785,13.186262956164114,-167.94850115352205,-32.88199492025384,43.021455229478704,Accident
774,-2.748822301691175,-5.313205659264273,5.934604080114157,-185.62524785843385,-32.78409950348264,24.640792177387276,Accident
185,0.357000247046046,0.35649921508619403,10.270385593994108,5.9383969423078184,7.6671685064816275,1.5807797859138915,Normal
41,0.08568414059498525,-0.564853427328809,9.570557868565531,8.86125798334872,-2.04641219056552,-6.292524553376673,Normal
696,2.138136086583994,-1.7152381258681841,15.291900562631126,40.812597513214676,82.35524447416324,-31.991999208745323,Accident
108,0.12877519536138218,-0.8893601244521393,9.488115519652098,1.6153963655801453,-1.6430923787449232,4.485330984435661,Normal
588,-5.853305592115874,3.7187520193246844,15.418666608076407,-36.772541781839756,6.7614780652261794,94.89163792338391,Accident
56,-0.41960876161131927,-0.24380311203624677,9.787222964504277,4.567923131166247,-2.381104367723295,-13.17873869508439,Normal
405,0.3114249661737494,0.023218274078074405,9.42160245571527,2.238584629051388,6.702305258951739,3.7528958376088277,Normal
442,-1.0337210500199383,0.3251005889793305,9.890510779351855,1.3456347062255367,-6.461313475528093,3.202398976004119,Normal
757,-2.136662290947153,6.126228120431232,16.273487463740842,102.4751661333382,-59.09579986636502,-26.51450970252023,Accident
997,-0.14426552199231776,-0.9608934136099258,15.23054443397304,249.03281608350727,-52.13400977251325,-97.39230347975615,Accident
24,-0.27219136226259133,-0.38162957827125843,10.663771585050357,-1.861033880355265,-15.097560779104127,4.609007509886261,Normal
467,0.37875385502365255,0.9004702164554078,9.997335764911492,-0.7563664182675585,0.18968917723801015,-2.8517568320684026,Normal
539,-0.6198338390881399,-0.48108024313449227,9.933343372273782,61.299438003240766,30.653455180712026,76.19695764289355,Accident
531,-1.974745237001545,5.573107030613198,7.751318832622063,75.61692276891868,100.34706886058716,-59.93373812825935,Accident
618,3.1461213792496903,3.584288585630813,10.635615847866921,-1.328827386072719,-126.59423792189119,31.229295551630052,Accident
694,-4.605120742597079,2.6165910002189334,4.839210389412981,-15.269777564254383,-147.72584382435338,136.882304735263,Accident
926,0.7577065379898704,2.880914388844411,13.051110649159014,-35.88342692222891,77.11255472606899,53.79114700891059,Accident
338,0.20646572713781217,0.4921611992382919,9.605911590729386,-0.166149953222304,0.03531579314088226,11.09390116724067,Normal
51,-0.19254114020815827,-0.07783861769603974,9.997901766718705,-1.0183687508848294,-4.335651078554502,-9.399621925695225,Normal
507,-4.641911966815097,-0.18301191556615065,10.110346342908569,21.249359453802676,39.02198568674705,-202.54154530006508,Accident
516,-4.5580382264305275,-2.386671203822647,10.557498631464062,-33.39443055915458,-168.37996045752118,40.36654515819122,Accident
920,-1.8220632996366342,5.566509944382789,16.109103322962554,133.09862657147787,2.712217894587001,100.1826929565312,Accident
781,0.09009443749224652,-0.9800886395590922,7.464349741310359,23.32509413455782,52.724347513073575,-54.75933844902376,Accident
264,-0.12628407569658015,0.5746366631428379,9.88468041201804,-1.230312440649743,3.401080527252247,1.265826190189906,Normal
817,-2.9469107411319437,-0.3711868388245084,15.383726979760707,-69.95485186719345,-17.64305833252299,14.092036151015371,Accident
710,3.550481000669784,-4.307728571605582,11.230977964882523,-48.668061174347,8.573593220767696,6.961318431390923,Accident
682,-3.3110094855911076,0.5360841504314269,9.460920840339082,117.68277526536832,-16.051143906034547,-80.55418887561153,Accident
832,4.769516934542052,3.1082629531387678,14.264199894203427,47.028471051018805,20.49364845554225,-88.25475049864748,Accident
518,-1.3534765752269964,3.8385560092804765,10.446922281392355,27.867339139690152,12.425999935952117,-99.16498288641917,Accident
447,-0.4699398931636776,-0.3459540349406222,10.093182009377548,-0.14631406842489178,-1.17203900158161,-14.955679854503616,Normal
18,-0.45401203776060545,0.049666152714612936,9.63982634590284,-5.120934121646025,3.177090151046132,-1.148998152875969,Normal
715,5.345396726313179,-0.47446153311696093,13.675009269635117,-3.03144653734647,40.34302827074179,-34.06044837212724,Accident
483,0.10173181793361155,-0.023855678070989927,9.600181907192699,4.311967361913794,-3.8332829389167395,1.4436183141251164,Normal
568,0.6757923517426485,0.6730189703342477,8.432302604768612,116.16941593460483,-1.6448445880405749,21.849474743491534,Accident
433,0.35877112789798116,-1.099402978310041,9.508461280715531,-0.5297417715206783,-0.8717712895141793,4.776502791188764,Normal
367,0.00629620039089743,0.1672283949935125,9.333366020463403,5.633525684137917,-8.536789787964734,-4.433404611417286,Normal
83,-0.2591351091368237,1.135346428902198,10.838373991780422,0.3083992492398583,-11.48090476568619,6.117844412093137,Normal
61,-0.09282948833190856,1.0377003993227194,8.375728689684962,-3.736058395739117,-0.6868589419969833,0.4284358070167952,Normal
638,1.4204156971056854,-0.37119804029926984,14.673911060609267,-161.3871038497929,-55.38806193870354,-27.180720611801906,Accident
272,0.5815818760774798,0.3162038695277605,9.253843617663712,-3.11324680867226,-3.378540395808059,-0.8838708155789105,Normal
285,-0.9760438997612509,0.5403903627773109,9.134383523221112,-7.287757497324653,2.3103044662594825,-1.7596065890825454,Normal
360,0.25967325712058614,0.10146151042564985,9.792345075413502,-0.671543707352739,-5.146857540910358,-2.6560714730379926,Normal
354,-0.009508103951344415,0.7102521239949274,9.511744799636642,5.002911590214891,6.059719926932003,6.0897957615277925,Normal
456,-0.053515179977278914,0.17136267318885207,10.176670810552267,-10.678371069893478,-2.900266206850215,4.660957821301924,Normal
278,0.03490104249500946,-0.03721671455002314,9.896024558245017,-2.1465111225862996,3.3315625045460595,-0.3088209993006446,Normal
12,0.12098113578301706,-0.11947402343320487,10.837630436312633,-3.5841116030140245,-3.845711748936491,2.744419176586822,Normal
182,-0.5354462490305562,-0.26226013313988683,10.259158303001158,-4.5185093036506405,-0.9019584088120391,-1.647238931735457,Normal
368,0.04883804927441586,0.3292721363364152,9.578358874404245,-5.454832151075991,-5.582622199743295,2.674086681729551,Normal
881,3.571645783030788,0.5266086887357937,12.528569467508078,109.91315081691596,-49.58177026031021,111.3964753186454,Accident
615,0.7544208268215362,2.20391263637799,10.881973248144076,-24.771977119044898,41.54869965103104,-204.28396768447186,Accident
223,-0.8063579355948258,0.3716320470113575,10.00689954872575,3.0768374200652673,-0.906120866090515,7.4083170123129936,Normal
572,0.6069863892684061,0.9623571777980517,7.387245610652474,64.71354155141755,48.762083616688095,-27.525116536338125,Accident
970,-0.27419867252734337,-1.191585948437963,12.969556447374618,122.29982804327267,121.23558466817981,78.05707021354002,Accident
653,-1.1244661698654184,-2.4769610484064266,9.759230144789498,49.87257106239325,-42.33608078492103,90.259182661507,Accident
545,-6.149823835732434,0.939396420039466,10.754699133109892,46.74513331482479,85.6864400322244,-133.6935817995252,Accident
582,-5.901209110761457,5.761102506432784,17.0360240201177,-0.4763767370183507,6.757342911195794,131.48332072964234,Accident
633,4.4848146823597075,2.2325571309451036,15.81567726581597,67.02113772372714,36.28684188073748,23.876145118515183,Accident
176,0.00650094593895351,-0.5552879227329144,8.953521592902309,6.085792604127482,-8.038305135590294,1.7482502364984684,Normal
665,-5.255486420255157,-3.7736044677266634,14.381455401431447,-12.61975865851882,77.88977995422775,-114.90030919424942,Accident
673,2.328083741530426,2.4604745602664533,9.101261040740237,-84.40861403843596,-79.61391679193899,225.94644728024372,Accident
585,0.9299969494966652,-3.8805228756122876,11.327043087365686,95.44903566808223,185.97386446822543,-57.91717843742299,Accident
873,5.4215899309136555,-4.430774782595704,12.406015043676872,18.62944699415186,-5.429710535958552,-72.85160697459918,Accident
393,0.9157293829271769,0.5846477952228364,9.868267665541369,-0.5480490196291542,-3.250119672034491,1.0769825272814397,Normal
163,-0.41034115917585523,-0.2717123855668825,8.977300626521554,-3.0391099354721622,5.700745192606332,-4.741740021121004,Normal
248,0.8827271201405484,-0.3057589014959741,9.916892955895374,0.947908082993717,-0.9456019538851674,1.9316165890577999,Normal
634,0.12397689681185539,1.2646382506096838,11.667562319162737,-54.33845225543641,-126.57785333971822,-62.60788779348712,Accident
885,-1.6918424641747296,1.6088727285515698,10.786914021929931,-37.93425400831719,1.8556782845899857,133.7812723278022,Accident
669,-1.247900783842076,1.01606195376507,9.864080318223232,2.845285922639482,-90.24500438461551,106.71085964004583,Accident
375,-0.38367378144402475,0.8972789317588938,9.695338161424068,6.97841905394978,7.242496149464631,-4.548417084909168,Normal
412,-0.7670570853678111,0.12469184185537763,10.027943886040804,3.1902555072037857,-5.612724031222069,-3.6547813785773666,Normal
74,-1.3098725520448722,0.4147027905917446,10.29813340972357,2.332149912167632,-3.088259477171751,13.103965455149876,Normal
113,1.231621056242643,-0.5627445236491883,10.047840943986303,-0.38918598506401014,-5.010937278907363,-0.03260657614729031,Normal
598,-0.38855174059032227,1.0084348890786865,11.603491933066884,33.74240594006967,-61.34912304036419,9.071551357335148,Accident
961,5.691866084319335,5.671322055467348,17.548086424159145,-82.3849478833476,52.77199984658964,168.42379435666498,Accident
390,-0.449207335674179,0.410241090598682,10.029986071469558,2.7314212400184976,-9.230939311190468,0.7062857004373162,Normal
104,-0.08064285583300457,0.20671745161185043,10.35409140836876,-2.413717610910162,-5.94705946433664,-3.1217269485661205,Normal
114,-0.09618048239056126,1.2228759898084132,9.87520945257179,-0.9023995679531283,3.7041217271006293,2.993971947809551,Normal
417,0.05783731714642933,0.09330456157817905,9.934296139431629,-3.10423799125558,1.7029460820024838,3.343274023789533,Normal
525,-1.1655623255490277,-3.5216398932269177,11.045287416772139,91.54344548479513,-98.76095987379168,-48.93069893556473,Accident
457,-0.517621161209687,0.22837660957689196,9.99057919244139,15.68874266829997,1.1970225026768853,-1.1827764360947302,Normal
409,0.2572194170293745,1.08162736165273,9.674583491772477,0.7147154738185337,-5.7413164437630915,6.285746084312864,Normal
92,-0.3510265469386762,0.23948991287319593,10.16381477181849,2.182799020788339,3.11103572021701,-0.21411690655787438,Normal
930,1.3996359343503808,2.01459351518716,6.656524756603099,87.72376945842029,-54.8839805628144,-77.33615125621279,Accident
89,0.25663371655667805,-0.4280419129544336,9.701825075457512,0.4307194152318738,7.262337672353727,-0.3176228730767755,Normal
336,-0.4127485983962558,0.7752502464070384,9.493298668229532,-5.718631036603309,2.5033286069060483,9.520682947865035,Normal
988,-2.7736923431342997,5.7703373844748596,14.643440162440108,15.40775349850441,-56.91697552669638,34.79528306943189,Accident
921,-0.2316631356691367,0.6727042336058753,8.741836253645742,24.419450122508234,-95.23261885395922,12.903963413015608,Accident
933,-0.2937457393287122,2.2825399629344334,10.315326761008123,89.78993749625276,-27.611750491042173,-185.12352528000844,Accident
605,1.0842519518193088,-2.3726981450026594,12.729370375538679,-20.294086203390478,16.13223241034037,17.646683018988863,Accident
593,1.2588299160723544,-4.438332669419172,12.664675420872632,-173.7257123808358,136.32816624472943,30.612284118199327,Accident
611,-0.8494166902313014,0.33411780552015724,9.66788554546228,-161.5941865724909,203.15052982262893,141.3209440262107,Accident
94,-0.19605407656607882,0.5187699721289496,10.16632003860779,-11.814662177709192,5.195558937101343,4.242154411026423,Normal
11,-0.23286487678512843,-0.025119054724568476,9.8987998023462,-0.9682972963985905,-3.813623892831071,2.736323986889835,Normal
396,-0.8565672645454387,-0.08355904015842718,9.126436855235152,-1.293980313335512,-4.6092990656265656,-10.420564697492942,Normal
533,-2.9468821027640386,-3.7171581075799276,3.4827640215437192,-70.2779041073648,43.07479657731619,16.83970391372029,Accident
43,-0.1505518477946444,0.7207843103289502,9.780745765249646,-2.285481282931359,0.76177436016861,-1.5424139422790986,Normal
42,-0.057824141194120264,0.2649020889576414,10.339340416715649,8.30629607273935,-2.6204419896729627,-1.0850852521218521,Normal
329,0.31417275463213995,-0.1408923044302536,10.099964364998103,0.0942481147242383,4.24551055371572,-1.8325351018402591,Normal
167,0.9483964913269737,0.7519964942913443,10.08195456002618,-2.5238746061410873,-6.287889294573081,-6.162616573842545,Normal
497,-0.0951693390418041,0.3204214306335049,10.404183115296572,-4.409373256138589,-1.398800842479172,-6.208802877408122,Normal
876,-0.8394310271310182,2.850047486008937,4.885021917423323,-107.20576568991478,205.7596253995975,-129.42404910522697,Accident
597,1.750632909035663,3.021400009419479,10.230315730611327,103.30190712127032,-89.74008822847104,-22.133741737531633,Accident
756,-2.643205009983877,0.31031438792431915,9.491813543699926,-119.78061161429156,-32.998320951034934,45.633693868863645,Accident
100,-0.7076853710252071,0.37849430832267594,10.299005054929827,-0.9144822055242008,1.882047630487583,-9.38276353020937,Normal
426,-0.48246173029005224,-0.27946092363579417,10.828103564970162,-12.651437613731648,2.8602872085707203,-0.5811452156097908,Normal
178,-0.13232841661897804,0.4678391965737306,9.305704446424542,4.9915544907398015,10.118031096148197,0.47672099720654104,Normal
444,-0.6522347502524266,0.9233184980238329,9.999843975876322,3.1078594492802543,-2.5148738527567156,1.6202851411078032,Normal
416,0.7755759877612615,0.3039482548582696,9.828506562448544,-3.9389187595411945,2.7573813761976163,-0.8778197274960775,Normal
870,-0.23233038217798094,-4.170665775460388,6.7733349220941745,246.14882961444027,-99.37972268393834,-50.84328790524453,Accident
882,0.6377220918966446,-5.531380750442237,9.99945384914531,-68.19094128592829,-72.70157366463786,53.78347264323217,Accident
680,2.9352663360841054,-3.358638385149506,12.83504590393401,-18.504075434375956,17.492744540583818,-76.09474963103649,Accident
177,0.7267670385786584,0.8761352217118114,9.750830186602625,7.606580259612256,0.9237028944786223,-7.824013856810276,Normal
395,-0.2345878260523524,0.3243549437948213,9.892340152932455,-1.8500551494106385,-7.24822609849265,19.631188532181632,Normal
911,-1.2092279671950923,0.6556021272328371,11.816772985942873,106.02208723496301,-41.886079072526634,-6.936090891856698,Accident
793,1.0140704433051244,-0.721995523590639,11.374595368378776,21.141461731650924,-73.45697332078332,11.159823691796708,Accident
960,5.087168633432595,-2.194895216725584,15.565790469261024,-25.499865219690648,-2.927197947434493,-65.00366160975886,Accident
684,-2.340597387352388,1.8092840548465006,10.563724285434935,-82.96528588559968,83.23447141158711,-45.13569438883892,Accident
383,-0.2628775108403805,0.522080438534536,9.497142538498332,-2.9623212957644713,-0.24326175785225573,2.2884329302677604,Normal
956,3.266308962650016,-0.27883261984076485,8.528650143860187,-15.655882491752116,-50.292344405965615,-9.85091482818141,Accident
751,0.8944753979715769,0.9873203361303886,12.632005395609333,-20.502465940125795,-43.085893863729936,-98.64810440118842,Accident
257,-0.3538347328093904,0.09241806184743695,10.009509504683024,4.764372736014694,-2.103808968405266,-3.791410344437951,Normal
538,-2.8881976958538367,-0.1470880225141102,11.93309914884584,-17.509300138850058,129.9107994248922,-98.59449913312002,Accident
335,-0.07352869075106933,0.11710736626826038,9.631457014440981,1.8075176260305081,2.8760250805328313,-1.4991909813744029,Normal
15,-0.28114376462048635,0.377695612912878,9.898955391731324,-0.6087375419164177,-0.9691306938640176,1.639397620796787,Normal
324,-0.503008690749851,-0.2227512607003859,9.832237207405061,0.8432733598336384,-0.027980094145232774,-0.26202225288734726,Normal
758,3.560203860531993,0.8320753858940277,11.724881927564622,-53.23378385035684,-130.1603936693399,-41.49333756969681,Accident
222,0.34313009518725673,-0.6740927110528565,10.11688844046605,3.694052404437515,3.720959857499684,-5.294537935283002,Normal
179,1.3600845832948094,0.6357775474970794,9.248205341392115,-2.158101563590242,0.03399922279998884,-1.3172410804112455,Normal
983,-0.19255248386645785,-3.370482099718794,13.66016694922328,-11.776422294847782,2.9426266539387824,31.433080843857304,Accident
22,0.03376410234396192,-0.33131187947292334,9.787822703869509,-1.1324204942491596,6.803292979193255,1.8374083273715218,Normal
356,-0.009256567996194965,-0.41617778655211435,9.526877775873759,6.962326500321644,-1.8463856962310157,-3.5895944537380093,Normal
666,-1.169771119678336,2.194140757724977,11.10787176227068,-51.333345610430584,-40.2855695126174,55.51385865530065,Accident
861,-5.062033041332131,-2.368015517159023,9.526163248695717,-66.08895933716337,9.128119378121593,98.2424167686508,Accident
340,-0.4111101977832157,-0.024731854826216475,9.880286990524933,-0.6426875571946538,3.494142101012674,1.4781224437354754,Normal
431,-1.0196160888800503,0.9405785347202951,10.207868606269649,2.4834961161826086,-5.098321693460578,-2.2776976301193534,Normal
551,-2.12832300728264,-4.703578276096367,12.543753487806152,67.14792913852817,28.093237410166726,32.529762737813925,Accident
833,1.722213662682004,-4.268924775785019,12.598271957960302,49.5791027762295,95.46488047417007,65.64428023103176,Accident
203,0.5269010260174515,-0.7042306481817798,10.071649014518195,5.548499209781116,-6.4663647893558185,5.118547730534907,Normal
630,-0.2677024626643468,1.789323412745258,11.2708164033574,-123.59498773414069,34.88046201780638,-59.23920850657268,Accident
93,-0.1638310732988841,0.16683105264347414,9.82597294290365,4.519674205430976,-5.694165588903846,0.29011367404197613,Normal
558,-3.6064485782282665,-0.3393841575472212,14.885961567215523,-43.01166062238532,-11.08097956857798,-2.3373124683188196,Accident
68,0.18081801252381707,-0.9353959605129278,9.566149399344056,-7.812729284432713,7.113740680499701,4.2922555832833265,Normal
622,1.4736229962359888,-5.93467574812443,14.873374843418716,-70.9863567084617,-20.609638840879523,-75.19742633200532,Accident
284,1.0665166873281333,0.2798952239655199,9.407005269746026,0.4121987646725164,-2.3220213115469384,-2.436014605974636,Normal
844,-2.8941162772521443,4.82634256720312,10.03830483502327,93.30964365354018,-26.359144017438886,57.67975623245086,Accident
434,0.751178526048014,0.2200072250266662,9.716439143106795,13.221716735085174,1.1265396102047078,4.380233962648971,Normal
153,0.11612684858050178,-0.5532629543708352,9.138455103296252,-1.7658314640534418,1.1535045285934173,5.1529029281202865,Normal
75,0.4109512521876119,-1.1055676545039426,9.553121708419344,-0.17820741148741784,-1.5803642801352489,-5.559835128870818,Normal
730,-1.2537286372976717,2.574042585906436,7.287355628622263,-95.11707356279695,144.60868062154105,-11.590284955830947,Accident
446,0.18329912304842413,-0.7627625854623694,9.535691659125122,1.8855019695109323,1.4711206450674685,0.42604724816950534,Normal
188,-0.4233968590342025,0.35547998410174575,10.075026049512276,1.4164393577307108,-2.146222101493309,3.78394339993491,Normal
271,-0.7179310755897197,-0.2812333879471338,10.104569060453588,8.475255202153765,-2.4361428205677615,-3.7328917327011943,Normal
236,-1.0125712933288036,0.12801486715693783,10.638850407038221,-5.268412095731771,0.07136533918217053,-1.6756889058572588,Normal
487,-0.5407740018071975,0.4386811452878357,8.919595594009612,2.580891435574792,-0.22705608966119112,0.4668618713832562,Normal
117,-0.584339018809766,0.362883311949346,9.771190601483209,-3.7589552504759216,-4.971746873042561,0.4099777820678021,Normal
943,4.765880784130788,-7.1709131024083135,14.040690625252887,-58.25375207758525,-43.28054926263195,-123.55470785985955,Accident
512,-3.86149070575275,5.136120852053677,9.045020622548954,-47.12897062249016,0.7026923918518253,51.00846497849669,Accident
825,1.4255032394861449,3.5151537441484786,15.108908676217439,19.299219872538345,-0.734588270811115,-133.9575568362596,Accident
591,2.2791368864525055,1.8123626687655539,16.261512861813188,15.699275253337637,-56.46187864762921,-20.316136511778808,Accident
126,-0.49526816256534417,-0.49480241012929044,9.951317732619517,-2.236609478293756,-5.904064076544224,7.016849850625953,Normal
116,-0.017355884852621656,0.054697397302446445,11.001707792619138,1.493764541828431,-1.142999576700093,-3.670868993892479,Normal
473,0.6834371337222623,-0.32631198965119546,9.807344097364599,0.9736809735938743,-6.9052230157688745,9.93637999615404,Normal
693,-1.85292503080109,3.172104916134675,4.720823788394375,42.15183389326349,-47.30278310415156,-83.77260549522117,Accident
57,-0.1546061879256073,-0.21627909390981045,10.386364509629683,-4.015894753401724,4.371945903563637,0.016877532985804994,Normal
863,-4.0663425093368675,-0.6468287357040672,15.586441952476438,-108.04447714743866,-74.20426646493824,-143.51368905535705,Accident
912,5.974659906614202,3.0284153657879065,8.824678099075042,66.16923428526144,-61.134942931027716,100.6095245087488,Accident
369,-0.38650489192773324,1.0051022693831748,9.35759864298655,-2.054071439772924,6.179058100034693,6.144902512445309,Normal
268,-0.22002224334849188,-0.3134835288938837,9.432235028705117,0.6160240339224283,-2.5208991550383573,-2.5821482194378587,Normal
46,-0.23031938547989375,0.28853606359027,10.12616143920671,-4.991927195941457,0.0010353245909854691,-6.888087503771186,Normal
349,-0.10672357585592362,-0.2654984775009088,9.68761729905366,2.1359718093584243,-1.960063199595648,-2.695613515744893,Normal
195,0.1926586898644184,-0.15477321965699514,10.020237368980201,9.694644995291423,-3.3099108889830453,7.156833909155917,Normal
999,-1.0700194025396137,1.081943674307385,8.417431796723132,-67.84524784244068,127.95767520910316,-93.62245651174199,Accident
834,4.198783935437381,-2.910372781138931,13.419114846480646,-152.90535133300034,-61.73926516774259,14.744725126248277,Accident
736,3.0223319195855955,-1.3735451585474676,16.305262197666707,-63.270543335565236,-111.82443827394377,46.34774078054206,Accident
263,-0.5121938206671449,-0.048029949862324936,9.339663203460317,-8.009829059485842,-5.3552683982452445,-3.157888645826657,Normal
443,-0.044560019756394204,-0.049587931889691454,9.151584026022077,-1.7159613774870524,3.448539026225972,-0.9525155299890566,Normal
675,-2.2573057120591047,0.21862229404654618,13.474516941740351,-77.01208095351811,144.11440794131903,1.608517349527871,Accident
304,-0.010450796982074066,-0.2172481137161578,10.068254921785202,-9.015698381279725,9.978337448919822,-0.47732123544536514,Normal
341,0.12184360574595615,0.3374097460833019,9.801523010076709,-9.409245227488196,2.104864721946949,-7.583212747103955,Normal
966,-1.235470106890972,0.9333299734295857,14.55023799725266,-75.15705935887861,23.48300239749124,68.08992787041903,Accident
149,0.14849233661659303,0.3481031824067092,9.376519325840837,12.94781821009307,-8.215944055770837,4.511385868933236,Normal
124,0.29342854690013515,0.7965933133196985,10.616715766150548,9.366488881087728,0.11232946406023189,2.0488139797974867,Normal
786,-0.9903602818993509,0.9490749646084342,10.627100251987155,58.47671811009729,-97.35173682721337,-8.557717588678406,Accident
50,0.1620419846973975,0.04329489373644996,9.487218649245236,-0.5007703823997639,4.125491323338173,-7.929916561189792,Normal
353,-0.07996926498171356,0.5945082655537759,10.179577580151324,4.595770868050008,-6.829778556002672,1.1027071350693343,Normal
927,4.153596142781719,1.3874508722005623,9.467027888450787,19.084396301899133,-1.6079001415721317,13.33246538878752,Accident
142,-0.8037416172806138,-0.1297956756818024,9.724972206483738,-0.3982069562285757,0.866708321852041,-4.238169643095424,Normal
470,-0.137525848575822,0.06405220745539464,10.398315743322826,2.9677836114043092,5.364890238830059,-9.561274877098885,Normal
399,0.6189081559867309,-0.40846783549361804,9.471552860514302,-1.4774015901458017,0.3467216851812521,1.4366445220150466,Normal
625,2.218959455174014,-2.8436781518069587,8.713441833463314,100.92154020284127,-54.690742582911014,-7.802030699649874,Accident
320,0.048497982496359095,-0.2586442250501861,9.828324962448555,-0.6562848354615236,2.197506153101132,-1.3944169707537826,Normal
19,-0.7061518506676457,0.3756935616858945,10.01208297320096,9.270462831670942,-6.196291974267362,-4.257032171301568,Normal
809,-0.0009410178353241362,2.4323959367751296,10.606256765653145,-33.55478021268405,-78.29926690478129,-18.452933331176652,Accident
790,4.25559403544411,1.7584974011783499,13.525825119700325,-21.248364822888416,125.8987373244085,-130.04352268496487,Accident
808,5.283564374602121,1.9649267526650693,11.40923457600933,114.18442914313731,-60.71765591226758,216.24220515240668,Accident
407,-0.07118974251064675,0.37312678301361035,10.550666825977745,-5.633837344549026,4.148662089395873,-5.6503466952017884,Normal
537,0.5113913129897127,-2.43720704681226,11.335460211143628,-24.268005398170736,-54.93722744026363,-28.294860765360482,Accident
620,-1.4506844515396113,-4.1185783544431915,10.177060963879581,-36.29091100733462,-110.44789647197209,-25.630804754943547,Accident
38,-0.6640930244492153,0.5031464046072203,9.912225909279988,-5.84958417855144,-0.12787156095997218,-6.228586882231922,Normal
175,0.4135916245180119,-0.38890834379543765,9.659662461566613,-1.6116023460566995,10.447693608473866,-9.813128458362895,Normal
245,-0.1672506179204742,-0.3628719065767328,9.188029866618873,1.1918449136739255,0.5217796876160646,-1.4830372953489919,Normal
828,-3.276490898154269,3.5456732788798844,17.09830794902613,73.8806892837895,38.047074874286594,12.847154653740782,Accident
667,0.47416046976039555,1.7712661837543904,11.260849792456355,133.22815340988248,-12.049121170394642,57.32714718077213,Accident
754,1.1028595206291327,-2.076750987797689,12.701544077368794,-42.780533667545846,-65.4145917284107,-15.662821677486507,Accident
858,1.374504344366096,-2.171970995227827,13.774326455255565,10.455201957150585,-144.5633115945453,-24.078424991457755,Accident
154,0.14653623664934062,1.2866799016249302,10.621007580068186,1.6924192173084558,-6.300823825862901,-3.289172769260685,Normal
287,0.29415860324228826,0.22959003961421834,10.053995663456272,-3.760782027952916,-1.2576944302224784,-6.480583321249473,Normal
602,4.948442682971763,6.149436287357778,16.053218677239418,130.80531156220155,19.866011401270576,-17.110013404371113,Accident
569,2.078168265350578,2.7120526642839433,15.161957313548628,1.1319411972606634,23.134693849498028,-79.85698068091241,Accident
743,3.1761855896516367,0.5041794179004607,14.09606644055113,33.18183126310328,52.35448216844969,-117.2539085873676,Accident
17,0.15712366629763694,-0.4887776223992755,9.558057082972839,3.154058422773888,-10.019311822033767,-11.096501863737675,Normal
127,-0.28314886480138596,-0.06289346004982407,9.422862074990322,6.405081808675565,5.5716084733443605,3.489516362695138,Normal
322,-0.40911034161673626,1.1494490618096251,9.764750610970456,-1.1242799090403928,2.288864330759429,-0.24448591737052772,Normal
255,-0.24211703643312568,1.3161910324186954,9.195179490654398,6.868292725814788,1.8181594131248393,-2.2582973807981137,Normal
657,0.32822541549891016,-6.2594329751132545,10.567767881421599,-75.28181605331032,233.4538844048074,-3.5489164409249305,Accident
964,0.5258603368017716,-1.8246795223342778,10.259951002038946,-52.45501755691549,-157.38600513807955,109.4463480390881,Accident
190,-0.22325747603351054,-0.18048308290953996,9.852687753072981,2.933469007376374,-7.990621759418738,-5.083415642882486,Normal
115,0.15077367116680623,0.06461059098761375,9.982480501233113,15.965537839224304,-2.566067832357926,3.341702443590404,Normal
616,-0.582807395935558,-2.95741142600348,11.271903756524155,91.6822060010732,133.8691156922019,-13.470793797828202,Accident
606,-3.8794246312759433,-2.3395588386649164,11.117272483090627,-27.613176435983714,-82.39778198215487,-101.67613768738262,Accident
180,0.3128336738825031,0.36083603202161757,9.88994707557674,2.0186504516830475,-0.9501951750074723,3.3957138771909774,Normal
301,-0.2800905200984848,-0.25802236410868695,10.296021174768262,-0.30330406907310387,-4.990303136572065,13.465168319902483,Normal
759,4.309006217117935,-0.06683693755113995,9.336691465384378,57.752278835051314,161.8072184455585,68.25612360412435,Accident
712,5.001672334653411,0.8430277508454189,14.3935313396873,32.7708894947195,-14.023562392321027,68.53899371763667,Accident
723,2.085608700251998,-5.35912639606406,15.535538069395269,-24.285146021273203,-74.3033665161967,-48.30706379945493,Accident
685,3.9917247121171204,-2.551605836241132,13.078427392641377,53.2295148026264,-156.40390162546262,-119.52302346318005,Accident
979,4.15904819178853,-3.148966496729823,15.16167465688765,-177.63368071481008,87.91866859535718,38.90479946801773,Accident
517,-8.496466794331706,1.2731818135830377,14.088503991477868,27.52431372507732,163.37423284277847,50.123069066955395,Accident
984,-3.0317946597867405,0.728646039450825,11.898224322216274,45.187388688009804,-190.74454310285967,127.23228548589108,Accident
45,-0.3599221041973543,-0.3984476277352384,10.241829968743337,2.3438712803751187,5.605153336622357,2.164799126803481,Normal
909,6.140586587158674,-2.210310407842866,14.628507501573699,-65.88279765006796,89.48399554042608,-72.11005439177396,Accident
157,0.23691646045589376,-0.012062543555001639,10.926217902672155,6.587987678039799,-1.5885754837811703,4.451237504182544,Normal
851,-1.0227236320382393,1.4809645429294527,12.142480404754929,203.92077669741778,30.036468610180226,-37.61626710282491,Accident
171,-0.40790514248271914,-1.0366951162040747,9.940595711984688,-1.8341220590734377,-0.3797551182126138,2.910132835423634,Normal
16,-0.5064155601672119,0.2504585938121904,9.474290998192776,7.5672487162106545,-1.3225742065530537,0.42946503146665205,Normal
511,3.97738994262657,-2.6303213436355346,7.78331083843114,84.62513446566369,58.68382508046927,58.281491481162895,Accident
48,0.1718091447842307,0.18557293668565442,10.538270174862948,3.830401391923451,-1.6394735825645892,5.106916477146992,Normal
971,-0.24263549359638392,-3.3068092213675664,15.851450579560684,-6.483677177739501,30.538733517000743,0.060440596367643845,Accident
940,0.4365635933047224,1.1374593561783723,7.929193290901274,46.98099307713414,-48.15555535481416,-105.6702684301854,Accident
515,3.11513655305795,1.4262920475798704,10.26262767109276,-73.02487354372104,-40.94108463538427,-121.51758246506517,Accident
952,-0.38296404455457034,6.5522902001413685,15.449016056636241,63.19357777446818,136.36736746379017,-57.32587907392841,Accident
480,-0.06395879574038327,0.3929000793254161,10.161190678913886,-4.85828367270643,-3.029304103794467,1.32010040666835,Normal
283,-0.6189077494134245,0.3052928726419116,10.278351158397292,3.800279818448013,-4.905827655698408,-5.210222061215514,Normal
718,-2.205910382045857,-0.5443472077425502,12.973375813057551,57.826151598840966,-41.11205013190745,44.47531613166738,Accident
877,-2.893613384730574,0.729014166163199,18.126208958783643,34.57733526074031,-179.95459633606112,30.462245709204137,Accident
225,0.544475298483683,-0.09199166817633957,9.735089650133288,5.429910580875161,6.606520161365061,0.018478359239236627,Normal
26,-0.5754967887111514,-0.8137712189415813,9.8190017390841,9.422931529673045,9.002555907554267,2.1004724522592064,Normal
954,-8.788346070006805,-1.7419449076618532,15.802954533563922,26.148432048834987,78.08325754847573,42.471545137275946,Accident
437,-0.6900507291074457,0.35417822364967666,10.603672788009996,2.338465858827166,4.1302358572075315,-1.1477432768017355,Normal
951,-3.7654061159201846,-2.502845430103874,10.507282505072359,100.25062598145948,8.870910626273428,2.030822237781737,Accident
364,0.34507199585555626,-0.3063943452421931,10.398285750832246,6.521701214390763,-3.1463169684639434,2.0430365385088383,Normal
229,0.3397988744673379,-0.38915236270115633,10.905261500795676,9.190918383975612,5.037568449184611,-2.4265291768393418,Normal
37,-0.9798350619398878,-0.19227777211491268,9.06781255989509,-2.663504198309557,-2.544818128537494,4.592272219712069,Normal
965,-4.010176316627792,1.0893468832335702,8.53075254976843,-18.85689958853348,-1.6995823420993703,10.072111071596721,Accident
374,1.0765912287557782,-0.016563486436898547,10.535585163746806,6.551543730598041,5.586994079512304,-0.15529466435450975,Normal
469,-0.28790912032234,-0.7153875510590241,10.022301334110072,5.668850484335323,-1.0465690978968079,1.3502867919571104,Normal
967,0.3957839003158712,-5.668947876288459,13.253042256718203,89.53959340512768,19.953415014803333,97.90847348340746,Accident
850,-1.5581891154783798,-1.573987221200409,5.89133849143219,-209.98536450992896,49.101668463192695,19.45077241107913,Accident
704,-2.856949142216391,-0.42112517671600935,12.331605952421821,46.18908200853292,190.53708253860367,-27.456474147443014,Accident
841,-0.7280438304361,-2.1293669767006054,12.575693207619109,6.055595200407476,34.22515161223225,-95.72463428933492,Accident
194,0.086590462925591,0.2965506289841919,9.003503133234165,0.6318978977320591,0.9485308380519784,1.6692998328426734,Normal
854,-1.7814342242061154,-1.0965178109557976,13.212638595831997,94.5254173135317,-43.167297658970526,-110.52733747708649,Accident
864,-2.1270628728914716,-1.1155736468359967,10.21011282416481,-6.069716054801866,-15.219267553057254,-45.33640864440422,Accident
503,5.663062972020571,0.15359370564325603,13.417891037530216,33.0399129710238,-26.40721533611498,-110.56140549539501,Accident
969,-0.6559598323051079,3.8719333827676414,13.16211444189897,116.22044361009465,9.98016797311476,-47.37926758502517,Accident
830,2.741314864156757,-0.6075726811944901,14.044086979725916,69.50180004726168,-43.10086698768765,-18.91590693886875,Accident
579,-0.7455858542233481,-3.198704795697675,11.08314266679506,66.52934289443229,118.24575186851553,1.2545789177299473,Accident
968,-1.3636431562303326,6.04582533138192,12.322333123022677,-23.55646060704272,-26.133859800723517,27.03644433160202,Accident
162,0.579297789503702,-0.016376635107999193,9.105213766618203,-10.609274495042973,2.4911087424839256,2.9861410912669237,Normal
908,-0.6674246903347961,1.7577126034939474,13.622725555682969,21.427491029306665,-16.4227215597001,133.7078060349981,Accident
152,-0.3400123607892454,-0.13444434527741528,9.480519126155249,0.9719215078866801,0.10443244147980894,2.5539604426379734,Normal
801,-2.8137767296091964,-4.80081331351113,7.9031477874295515,-4.591629205922881,-25.013475658588582,-19.0586940044494,Accident
993,-1.605950137702977,2.2532983635219304,10.624084091696746,45.34173809473437,166.6128257687838,41.5034413961377,Accident
755,0.4442682593948286,-5.90676942724825,15.106330249250835,23.597716456705726,-90.70642854450833,-83.38172704377988,Accident
111,-0.013256937724608439,-0.027792335455227534,9.908716436589863,-7.815954043483285,-0.8139645303614711,-5.688428352124083,Normal
226,0.032140009547731385,0.00921696653269658,9.821905735989555,-2.67981722557024,7.098015022568186,5.057315177041781,Normal
688,2.6788616103263077,3.8261722139970447,10.750124083153612,-115.48834097358119,-73.43808836885887,-101.450944398025,Accident
103,-0.40113863461080945,0.6778189294024755,9.730205185922413,-3.9959600332512677,5.6271739220738475,-5.948333295451807,Normal
421,0.8776704212216022,-0.5132576497055301,10.336253668654901,3.739551280587669,5.847949962138868,3.725026564386406,Normal
419,0.033759240705054476,0.09704499644915379,10.053917878144812,-2.3604528884856366,-6.632360641555415,6.479358909315072,Normal
750,1.8097425017141813,-1.757783019953266,15.226030205870693,88.31468373615257,-77.26261062911674,-3.620344157146918,Accident
586,-0.1697654666996875,-2.087084631591192,14.578754617030668,81.72123142254911,-1.3604859587064797,-51.54722136175874,Accident
780,-2.5851092107687745,-0.4509613808156162,18.279593796629833,22.326708667614813,-51.286501323068435,-98.60322489762241,Accident
672,-3.951395759839755,-3.429057936221186,10.54747814625379,38.420840112473996,-33.17015204574905,-51.289140817971585,Accident
119,0.37596651634338707,0.11194201213956569,10.325327198003807,5.7422285459837745,-0.9551388130008451,7.279111610733833,Normal
53,0.30583814442043394,0.12721042165060656,9.930336882911954,-4.1344017701993,-1.5186301438833234,1.9480708868545193,Normal
151,0.17322410474848784,0.5632825147738787,8.723304943198144,1.6289815829108323,8.307350828640091,7.596419618208844,Normal
403,0.023490296882371028,0.6392259313036494,10.159476655332535,1.8482109609904696,-1.3582755516302663,1.6475436778650456,Normal
945,-3.423025529258215,2.74042119605222,9.715934190573178,83.20494559220607,-17.751061703381495,66.68825638698787,Accident
207,0.2568929754561044,0.8773970909921823,9.468549541224526,9.499409674476079,1.7780667439282998,0.11951521642477736,Normal
658,3.9859224847446937,0.4814688719204402,10.050519343507691,19.686689225312705,-14.731665254656166,110.27738843630465,Accident
843,3.6900017181574505,-4.115229387790517,15.07532745774532,-11.331886880810151,-44.90703971537648,-169.9158066160532,Accident
762,-2.713843124981298,-2.4390431167803897,14.278544662458323,53.755568625159796,21.79371173228879,-78.50607492139719,Accident
8,-0.23473719296747605,0.024260813972413496,10.324776357659669,0.44203443145923677,3.296228342162025,-6.755371831040106,Normal
807,1.0849831837410497,-5.905512640314161,14.195866507529537,52.186427054134384,-68.13297394675146,-28.880737860205574,Accident
36,0.1044317975023777,-0.4302066826419762,9.18711716849883,2.5680005328485827,1.9620798358938352,4.879083596723545,Normal
452,-0.49286302316777186,-0.625769712095222,9.920376589744285,-4.528661504313095,-0.3358914502467763,2.333354909830405,Normal
651,-1.1076216013423386,1.6523927168209895,15.383340751901695,50.129090981045664,-68.17797143978594,6.638993505000798,Accident
253,0.5162326302755734,0.5268208983039198,9.987028284923786,-9.153164484282284,-0.060444739230272805,-0.7541885578334766,Normal
303,0.3051851327167324,-0.23113764435252124,9.42212742025358,-7.5685719630641355,1.2510010312584723,-5.0202729842100515,Normal
746,1.3239214550977376,-6.531195139328564,12.492884296111708,11.09161469680676,-47.985761865587946,-30.709979306462625,Accident
571,5.1075439743888165,3.9359512157218397,9.885814693167347,-23.934541794194757,-17.57355618807681,-42.64723216126665,Accident
623,-1.0740881392409587,0.14080470618110888,12.622810054201878,61.74369417885289,-5.570676264008654,38.132083264044596,Accident
732,-3.2125572560533167,-6.055463593165914,10.167427080584803,-83.68968680500033,-84.48246399733341,81.82731772406113,Accident
891,-2.4084733318525267,1.7477139564264155,14.459775757905703,-97.5427573217755,12.935882136380233,57.23944774155882,Accident
262,-1.6206336700345363,1.2800422691343973,10.069377996223185,0.377168194507964,6.1789109591107705,4.476777153812998,Normal
610,-3.4853515317370913,0.10208223321669614,15.438090432426195,5.4270811133550145,-38.45183531905931,52.76251756713107,Accident
297,0.15364976043830467,0.3407503486863122,9.654862727905675,-3.980129284017445,7.007992964732147,-8.929332459670556,Normal
414,0.16615700598979583,-0.04764776619347605,9.47824088480993,-9.005288670763695,5.088307334217513,3.4275386939510204,Normal
150,0.12524642517293827,0.9244780474726726,9.304303825271846,2.8981658660678784,-0.8792720221603558,-4.538780900734602,Normal
788,-1.8832017182535168,0.543188228313247,16.527393040213653,-167.22423190825253,-48.41249884847979,-139.77773335722046,Accident
640,2.540312325649481,-1.4907960753539347,13.856658894069461,65.1184688158193,-45.92805402268787,62.91249695966532,Accident
889,0.41718119596025294,2.5488359655486392,13.755898309549014,50.87742005693904,-174.23741857557502,-28.06225644812433,Accident
550,-4.115021091691398,-1.5943636540776451,9.785828749015826,111.45450063479247,58.325091600189154,-77.82116134080007,Accident
886,-2.448651733625894,-6.58838346329984,9.941162592734747,-61.741756591430004,108.08126019896002,-58.99039227983668,Accident
488,0.8435708175362824,-0.11048208691483197,9.037171842714953,-3.2074079761147614,0.12694210271205092,-5.65101862336962,Normal
147,-0.6602283065421382,-0.027147433258906103,9.079974558702853,4.9286499783993145,-4.14248512390123,-7.02783509589321,Normal
146,-0.618475355439041,-1.3484433214707858,9.2518624565524,-0.9357213250227439,-8.004519892382579,-1.852540492950145,Normal
720,-3.150422218806437,2.986744542006089,4.824131387060929,80.57257604773353,142.7820031348076,-34.70987703833513,Accident
931,4.038677268608245,4.584094078163498,5.3085959426266225,-175.3003080932225,-49.376979731836926,-63.68513101765072,Accident
739,2.8137466125319652,-4.044141335820502,11.765308022824447,56.11958255397716,67.02644281835846,7.914702962310697,Accident
659,0.9395534215949399,6.6375931181917265,12.252504690557089,-64.18240217116347,-90.41429835877467,-53.72097655844365,Accident
348,-0.359222110626218,-0.318869992125658,9.116560650792291,4.847286002633684,3.4673945595699687,-3.0393763033790893,Normal
463,0.106989955367111,0.35450187879425615,9.374739772895351,3.226077929750285,-6.188312111636489,-5.282788213801264,Normal
325,-0.6070943063938661,0.7266922385588505,8.812266716823064,2.2097032478470453,3.343708277962563,8.520527581277456,Normal
186,0.23661881228677242,-0.12016269907906751,9.308756303230846,-2.3230864864919654,-7.119785762250725,2.3463379490426313,Normal
123,-0.7009255313961404,0.6727100230774888,9.22849754363476,-3.34072042769497,-1.3144541460413384,7.052295726017519,Normal
853,0.2314694886531502,-3.321470450407355,6.981318296065277,11.910144313415287,92.98076780045335,-78.28707119909235,Accident
608,1.3518102385876165,-4.048728634654596,11.398942266617508,54.908284401162646,-85.89509271342021,71.89353282713394,Accident
143,0.0923169292661521,-0.7515714765590531,9.862788226735772,2.2618589812486696,1.2197659895425013,-3.2604444429653032,Normal
958,0.056457149221795275,3.3505013265898627,7.345463252823213,-4.121834281971685,-82.90473978990163,-35.65202424239956,Accident
197,0.07686255297276395,-0.6255567881926515,10.076244977208574,-3.3887248526242573,0.0957388870787603,-6.561095967157032,Normal
609,-5.609449018596492,-1.2456413037158147,12.695526276404545,-67.1114139220589,6.486603432065897,3.0157258499138324,Accident
279,-0.1926567984308801,0.310336048775339,9.64544176789875,-3.46210489936928,2.3129564642697558,2.3972075904303196,Normal
293,0.4248010485105123,-0.6383742879101547,10.219245387225822,3.3567003822523285,-4.041328608204632,-4.633491544236554,Normal
400,-0.7972138293971835,0.1843366544364506,9.27654450865903,3.4847720225536785,-3.6086877666862667,-0.22756122650621086,Normal
122,0.7013971554680496,0.9410122482375168,10.119365111014593,4.596144672876018,-0.0963018986719732,0.41913313964680465,Normal
183,0.24123620762159265,0.24468728061395903,9.014749698188412,1.621796408608015,6.864242373382651,3.659353521441478,Normal
202,0.5415256215876385,-0.3521718452713796,9.861148751516142,3.1736073428088494,3.5987897107409097,10.061352228503825,Normal
438,-0.8516912196775773,0.12190035688559941,10.045487475819126,5.428931624696736,-2.1838211861910874,-8.19742081262717,Normal
246,-0.2374726555804781,0.09338338223853916,9.817041734129614,4.875988148912149,-4.4939202416156405,1.206609674583905,Normal
415,-0.3742432682782768,0.13951076288516961,10.263920064040619,-2.713368998670109,1.3574765541282399,9.243044166482058,Normal
932,1.5667519080533356,2.662511902242178,12.680052745483792,122.75856814356119,8.564596239383741,8.233391241858977,Accident
765,5.823652309391248,0.052839755800971944,13.480680613002875,19.963855167846162,-65.48840213280629,-25.507708439578497,Accident
906,2.046208470187894,3.9762963272852354,11.654327302343408,-39.722538838557526,-122.52282521949144,-14.090680284078264,Accident
835,-4.026383245455345,-1.192673296475164,10.063283783893816,7.438339722352772,-39.83694774542736,-33.602218183533004,Accident
887,0.23442918890894232,-0.4863719264395753,7.701986130781042,128.76165326207783,-121.00231722391004,-66.73478789860991,Accident
129,-0.2517378270580996,0.5470957592354743,9.96438120515174,4.263868375611097,3.5909286285396727,-2.3974648369962166,Normal
637,-3.0634873726809007,1.110183345806866,13.013872584696355,-97.62565519551806,58.31529556563602,-80.63293563425648,Accident
402,0.002621849859091583,0.014372411467408744,10.392852077331499,5.865623187933206,-2.733400422936327,-2.8491646411937936,Normal
784,-4.684479667325578,1.3931095906397224,9.662721781869898,220.41741949759214,129.50301117286944,-11.046586772918541,Accident
770,-0.647002912642897,3.0054745610458116,11.603590233295359,1.2146354032346498,103.26067392979425,151.07495516914054,Accident
735,0.5684394636632419,-0.3661713963638318,8.461621006476658,76.6271704886614,165.4580833204659,-22.490038791046906,Accident
913,-2.4961839145495697,-2.5348243157804893,4.505816947521182,12.637944980116135,70.09391453544603,32.48448979424647,Accident
219,0.04093706969316128,-0.028472811860533728,10.872574563886694,-2.177431852849217,-1.2351285037299833,0.6177384797779116,Normal
641,-6.381682261054486,-0.5477069231386233,16.915079196812822,10.289396032397322,42.91311199130747,-44.763702823157516,Accident
915,-0.4410762702925499,-0.27553429300486537,13.826716068763895,16.911725397652713,51.567634593214116,-71.48120740154242,Accident
752,1.9159805059293071,3.758527903282451,12.628602690788384,-18.873322344969914,-37.340704956115246,111.27778864011205,Accident
806,1.5960185964658293,0.10414124625768559,10.109925061398316,-59.122292641858635,-10.322729210382702,-184.33695487551734,Accident
919,-1.5965056893815686,-0.17824554381748228,5.344956719846756,103.41962316145656,-94.32865714902786,-87.92358012438982,Accident
624,-0.4181916019897025,5.693301050237931,12.923029960203342,28.500223096486685,55.13315656594685,137.27261049061556,Accident
874,-5.0479760823680575,-2.2181142223771086,14.983342126526722,-48.64049143498589,34.530530371007785,101.68522608056267,Accident
760,-0.7143313089361621,0.9662469323009564,14.992896230760733,-101.59988779151007,100.20325848233846,2.3544473342041745,Accident
386,0.17087798788857972,0.29196409266298196,10.4508706446994,-4.04801759960823,-1.1520035710288365,-2.6312392825871056,Normal
972,0.15677547149244964,1.042684841410656,15.884956754450867,-80.67589860378797,-29.869474000246754,54.868625488673516,Accident
509,-1.4133739554536358,-1.6008009193175008,13.899980478213715,-5.5625828993815505,-11.322370987027794,-11.340604322203088,Accident
267,-0.7150706889803163,0.885400317817755,9.348046179267605,-0.879429062161683,1.598259129594886,2.273704560705672,Normal
819,6.960122166051779,-3.552091674667678,10.99034223036548,-22.36059706372268,43.223035522855625,-21.219003237616178,Accident
441,-0.016347374047046555,0.43622866414007233,10.386736928742664,-1.9582428371089555,6.907270393452433,-2.3324768961409896,Normal
496,-0.5186230771632282,0.8988432634247613,10.8307517883182,-0.13260629624530032,-1.3948146516590425,1.2887627007137534,Normal
112,0.03011510497051322,0.13998431315991014,10.235033865344377,4.415548885735795,0.20459587697860565,-1.0074576697375899,Normal
691,2.1369664787404865,2.518405513555214,12.790652435864356,19.447338212855904,-3.303414960582627,-139.71733804632268,Accident
232,0.022785919951906892,0.20412637785723592,9.755858975824374,-0.09709802943866305,-9.850519088559178,2.814404300871774,Normal
869,0.3931955586475462,2.988354644733387,12.669812507760783,-41.770525601599395,127.11522627552662,-30.92332927182078,Accident
607,1.717170933527027,3.245954427749827,16.069750157483945,39.14036280610621,3.6863377306521072,-30.286379457052334,Accident
671,1.8247385750549054,2.616946140085351,11.518106641423516,-130.50680883336585,-101.88684388772793,3.680510938907276,Accident
373,0.47963541304260343,-0.36546501997095954,8.99321930106163,3.8983026613466993,2.508913680837725,-2.9230886532859977,Normal
981,-7.809411263481896,4.921843690464862,12.857409860384198,70.96638211570296,36.04904395451106,129.8605352422443,Accident
842,-3.079107622997676,2.9366686756703375,17.84502793436944,54.84717970387331,-136.15217840146684,-119.48078226025147,Accident
233,-0.32580017380290854,-0.8512918021189202,11.08985466882716,-1.5158989141713772,4.462986691496546,-4.3990717675102715,Normal
785,4.510259485286997,-1.6516557951254631,12.609707863758093,-24.448849132304268,33.26613035642744,47.2908894339146,Accident
676,-4.400355571847031,0.21959097300508348,11.972134315296552,55.42152254790884,-104.1270386242665,14.369781810553874,Accident
317,-0.15513337829672802,0.4448153978117185,9.647387647822667,-3.5957665962121004,-3.086265932734616,1.8436657365875986,Normal
648,-0.33199610567198834,2.3486212048457173,10.455651975255774,-129.33706999584115,59.72890916817257,115.82371347662928,Accident
410,0.3558074390444449,-0.15388911747650041,10.46409707092453,8.662574997425459,4.093888218774303,-2.6766754350811155,Normal
898,6.814349236268388,1.288022468405203,15.240168177417932,53.672899862150004,-151.42097420720415,3.003347318945716,Accident
709,1.3536759579555246,0.11834114472221846,8.621838117266849,-3.099431599163442,4.986507969529837,151.8987985084191,Accident
358,0.16135928016904474,-0.2761115221404856,9.060544215612936,1.4434681463992851,-8.881176164491599,5.898626041803551,Normal
258,0.22190971407311422,-0.4291788900906068,9.447494072120797,8.061391289943227,-13.02106928313567,-5.6530766746876315,Normal
744,-0.5184052121893932,-2.9854454455601385,12.075632602620246,128.34712866468772,77.76455725917775,-141.5240242991519,Accident
627,3.954906974558008,2.2920893447185784,17.396175055053938,-58.63751192990072,-1.1416282359510803,76.19825255622443,Accident
632,-5.193603910334776,-0.7079099616329149,15.211095480689789,30.91061230784488,31.41072925207744,12.11224383613861,Accident
282,0.793008408072676,0.1900989255029816,10.154054338344295,-7.523601870155011,5.970547015236862,-6.016004276945722,Normal
376,0.4361603183603391,-0.2588056495180857,9.465463630670042,-2.8108401328915105,-1.7988432289454286,-4.68253187394798,Normal
384,-0.379566330776849,0.3409457448131557,10.171047686004654,-0.13202878479463515,0.16398497705793255,-13.737524213626173,Normal
224,-0.23596593289471673,0.08543271906397093,9.707356170561146,-4.677193510222977,-3.24686519160713,9.812935952653973,Normal
953,-1.6818229105419298,1.7115216250635479,12.889730815590916,77.56552206023255,-88.64899666070954,64.76755487775087,Accident
814,-1.0843883000819572,-3.793495220864897,10.772074577712836,24.587649336637604,-52.53514765019305,-194.82498654263108,Accident
472,-0.7575955310992761,0.42032177449436203,9.732991416663541,3.2795038826488048,-3.9299301631749115,-6.841575194164053,Normal
347,-0.7037318871882776,1.2276500699554471,10.267159955619638,-4.330874241072504,-4.313878820215603,-4.186312155248501,Normal
505,-4.006444707299674,-4.117396643652302,13.777701821541992,30.352431808408777,-101.93856952614361,67.34246198272102,Accident
639,-0.8029232726963806,1.3734168297773541,12.012689576982455,-226.58607399873125,-52.7231419910916,18.528597933447347,Accident
987,1.994781486905223,-1.6446008945003179,10.266237669501868,5.549584212645554,34.267364052858,3.273979898313828,Accident
928,1.3325949818720155,-3.5381073648978516,12.307453926474622,-103.2449137556975,-61.69602396394325,94.47919242445377,Accident
905,-7.596738255659056,-0.9660844634761752,14.540646311654742,74.25965530754597,0.5018524947534628,-31.037197512596176,Accident
619,4.9662213392648855,2.6839415627216168,8.880580406919346,-8.465500599815831,65.3469609144785,-12.312418157975006,Accident
855,-0.4968942309528967,-0.453897660697567,14.147618234072878,187.49232422500998,71.59284448214602,-143.8571791527286,Accident
803,-3.0772580509208316,0.4783875204123875,14.110283750361926,-56.63287525392603,44.28556248542346,145.51188257602598,Accident
645,1.4101325621046064,-3.34213935048598,4.10780958951281,129.30400341775334,9.878384733167536,-139.4358024389332,Accident
846,-0.853153948819528,3.2725850118110937,11.857887892366692,-174.25690557851442,-21.98418438021504,234.1816073978664,Accident
556,-1.6666403384605997,1.9216288052243202,16.38658781615291,-80.44811005515726,56.74820115642538,6.046109813603025,Accident
957,-1.128902174774988,-0.7185057660652493,8.00061493566658,84.80717919269324,-22.201089508818676,48.20642143826727,Accident
577,1.6591202575570754,-1.9148481795854826,5.9776294177649705,145.64351263534525,82.97271189265945,15.470356153932725,Accident
795,-3.2259371791477136,-0.9768331564455108,7.418496430231057,-101.1204934357891,-13.52981485142531,-8.495527203180252,Accident
85,-0.25087852179226827,0.12411029315016804,10.015020823595535,3.46552803631572,-6.103562129570793,-3.128386437481062,Normal
242,0.25249363949022857,-0.3124092888478394,9.509159543025678,0.35026081556590694,9.882202922577427,0.2175733432173304,Normal
698,-1.1169571588137686,2.799384217023208,2.977102980918728,10.105135958656016,-67.7147441167183,-8.397416605089916,Accident
159,0.32827680431691486,-0.07218020596197124,9.637584308245689,5.6993928056452265,2.7884553036256228,2.7662560999239183,Normal
524,-5.609225099086261,-1.745346100176162,9.96407081611769,94.41025389932221,182.16691984426436,-68.50788146249631,Accident
35,-0.6104218249855111,0.023699335658207008,10.586993381645017,-7.9735153363339775,13.798300194555388,-1.4754495711895315,Normal
540,1.8306485087676676,0.9925539138467333,12.614276647205353,-83.21549758527183,39.92766529101995,135.13511469213432,Accident
170,-0.44475721481276165,0.6230425962488145,10.179464294893384,-1.1946604958484717,4.936672582945509,-3.4838590921478745,Normal
654,-3.1156314625319173,0.4480904468135667,14.970498716877866,56.275210651111536,-69.54295895909151,-70.06739251960882,Accident
890,-4.730989446572991,2.07857275271231,13.544650788229117,-65.7660809462342,-55.953163209863,-18.217569186860228,Accident
857,-6.386202283244437,1.774047725275201,11.02779547437309,75.9050477177296,-72.3958266350453,-41.44552155800454,Accident
847,4.771746217853551,-1.388818536075775,7.253469709961618,-42.35735708056066,-176.09947787607348,-79.54840525046987,Accident
944,2.086207423650896,-1.2366622350734104,6.189741892492606,139.85096552966684,60.453267099545165,39.43071774814958,Accident
733,5.73425726141917,0.43519123787814484,13.513449769149052,37.87259325699731,-20.555610009742523,-15.235694874337343,Accident
95,-0.7317574740660593,-0.2550081994273735,9.75964170994571,-5.048653523549688,-0.3788214326772994,-11.234446669923026,Normal
563,-1.5879963373451127,3.583776661541192,12.955563014396624,17.544186976034887,-107.28517706412549,59.758467208376786,Accident
240,-0.3962603692163503,-0.9204371156658226,9.610436129506256,-0.5222460926873574,0.5294722655761712,2.0743275018095524,Normal
742,-5.005797776634585,0.9650356241295003,10.230323046733176,0.1295225085552896,60.06982235210656,1.6333733770334504,Accident
574,-2.1990989865719683,-3.810183266136096,10.66216885841652,-59.9486151538222,16.067607449256766,-78.39404598257956,Accident
690,-1.2290597778884922,1.6000777341163481,13.187396546129241,-6.617201911719456,-50.83279041829896,5.4697252774127,Accident
460,0.9823625664581946,0.32136137993377195,9.730772008008113,-0.27447000308143193,0.37977633958043705,-4.122570807638367,Normal
553,-2.351260563373285,7.534669654753271,12.584527020810414,-77.29253786963336,-21.705198245463798,51.09417119042408,Accident
888,2.584908373493832,0.42914630963685707,12.437509410646152,18.199670058564298,-106.4564105064741,-181.28416753194261,Accident
206,0.2575176336043299,-0.6402146762481415,9.449004156096622,3.3628685060136565,7.420580142679825,0.724439165484456,Normal
392,-0.6601166035103211,0.533337344794577,10.806693623763312,-2.181929452632843,-7.482646275450396,3.8410360831586865,Normal
794,-3.6210649435716467,0.023640554084184456,15.619824464591746,-12.009356100304526,105.81955735081084,-22.78695501937611,Accident
397,0.6769361870827064,0.07335684321666142,9.314192980744675,7.9932358525235845,-5.019786860407493,8.623483248805542,Normal
766,-2.6349692315392166,-2.9260980818347497,12.872691172770018,-94.64449477875112,87.36854271859409,50.11477379631554,Accident
848,2.036793870177835,-0.4498221572373281,9.17880325054694,-44.94736794813592,-159.91111254889998,-73.7160818743137,Accident
217,-0.11840930337000444,0.0751508807309388,9.939497081111902,0.9524983988953319,-0.33066307312911225,4.426157414944955,Normal
4,-0.11707668736166799,-0.32532128456091347,10.149111656806795,-0.8509231126246422,-9.468073334768928,-5.42575263278899,Normal
768,0.694337767576717,1.9941082359993296,8.636268779716826,82.35304807642608,-106.86899233348908,16.40602713877039,Accident
642,-0.29728290072380703,-2.9698733776560418,13.143928836794354,-18.05251045698013,82.71048439393668,-226.6424232114192,Accident
929,3.3039688732072863,0.5167631592331124,10.551517227579245,-11.460713229135411,-141.91756928897036,32.26196504297374,Accident
612,-0.9025792414224787,-0.5372798550484688,16.67636755349068,115.3556004641512,-3.1915507001369536,83.08848553670532,Accident
738,0.5541314243432499,-1.1117482872023485,16.359826428127633,-109.20174363413082,14.393149563713344,-50.25149913353427,Accident
546,3.477222194867693,2.061197387576749,14.10210183636175,-8.038057645736412,-165.9589080813049,162.86988281454342,Accident
725,-2.963620022702248,1.7482127495215931,13.559706418586257,-253.63405887024444,-85.86624257783164,-97.18449087109147,Accident
683,-0.992367672982672,3.6876443528911516,10.245277039746691,-55.95961761341145,29.400832843248175,3.8260255827746352,Accident
98,0.002556728321230445,-0.2221466300380558,10.258163837351242,0.10396853837703947,-7.768793830080321,6.000394782134306,Normal
804,3.3024641952678158,-2.678362546475652,8.077890653307108,-21.01973981492032,-20.58400004942317,94.17479705474712,Accident
727,3.7488567158899997,3.2093143649515508,13.259116825071798,-39.078086408828774,33.26694690288484,-18.44691188188903,Accident
573,4.895570697267327,0.582155830817622,11.565286262755706,-46.75642334803506,-124.42989870729939,-29.96273206002007,Accident
406,-0.5338102146912972,-0.6799280704899596,9.089094666629078,-7.854380760342496,-6.497906184637988,-2.08097202442627,Normal
502,-1.2408166002649328,0.13566812699994768,12.05405061613334,-126.6870711830064,-143.6514538104012,13.232292823976339,Accident
47,0.5285611131094579,-0.10152269302149634,9.011803921507877,1.5089594990973298,-0.04650160569307209,-2.823870020854711,Normal
32,-0.0067486123689669605,-0.033039899323658285,9.99961156130264,1.6158385709239074,2.381788846781096,2.7775632317112415,Normal
779,1.6621733133477214,-0.2582090783726792,13.091911892558214,-254.13630505568005,6.317123653446761,55.8379224104078,Accident
839,5.389082468780891,-0.9309231161547109,11.047948523272396,-52.294331250993515,61.66417759903769,-47.302240749576455,Accident
200,0.17889368017414164,-0.26136151025951976,9.862612251323954,1.753150496367796,9.021740548933716,1.9340426034460132,Normal
134,-0.4597121171169016,-0.5060521876300837,9.677921682354677,-1.6738766605327045,-1.770203554705119,8.499786872881902,Normal
27,0.18784900917283598,0.024042473330690997,9.860015663359132,7.716217641360945,6.1947317646971864,3.034252966078355,Normal
880,6.495168203419807,0.9051000267052066,12.471383756972823,79.50257716243512,-46.913211911101875,-192.29348808804244,Accident
230,-0.36518331585856834,0.09792262754884078,9.521254107496084,-1.1173299118592608,-3.42314912880002,6.1543725657736745,Normal
489,0.44081987847472526,0.01344291949726539,10.431292051713593,2.1596127233697033,-9.598365780988281,12.058383377892106,Normal
772,2.6442225867707134,-2.346010477533111,7.924277954227577,51.64701697393547,-95.97802120721708,55.80695762713592,Accident
378,1.0949014666088361,-0.008211448036376037,9.497192230131569,-8.417190961104751,-2.06732580561638,1.4609636416318659,Normal
288,0.14049593386751633,-0.035082855729323514,9.248316696913063,1.5958725520959023,-2.987550973458208,-2.280604137370941,Normal
418,0.5896485920319132,-0.22321680727526413,10.564234213206266,-0.8407190929239481,1.9534796046407208,0.49033769769472274,Normal
674,-3.006651056780174,-0.19406581509755544,11.473864632303927,65.82262246672019,43.974654903220774,-105.51747986420085,Accident
391,0.24595958575325286,0.25363701555364887,9.461142315123947,0.032111349054689084,-4.64755430096205,-10.652832399036003,Normal
592,-0.28337614332600825,6.910916256314367,11.659558062353577,43.66293708258844,-111.3566704761385,-60.308969095276915,Accident
498,-0.4378091266923786,-0.2855894948913984,10.312031262905732,-0.8153348197188194,3.9518594802585567,1.6708820862244873,Normal
138,0.4067586086848349,-0.6449804498705269,10.09870003492493,10.312624596215725,-6.195535378269504,-5.162619517637697,Normal
62,-0.5531674870030141,0.4355623517158462,10.374382850186052,-12.121201301364708,1.952324249644448,-4.627123130297937,Normal
471,-1.1509605823677924,-0.3405258287374404,9.49510854784031,-14.701943173321402,11.819362473096804,-0.34317023042734307,Normal
647,-2.1365215925281307,0.6382193275729809,11.715527306157384,-2.7640499163170813,-16.91073838543752,125.45459436218609,Accident
128,0.04982568254382061,0.027862456144347302,9.767930826703504,0.3392775526370165,3.5769065772062203,-2.2152201056424117,Normal
976,2.933446649058601,1.5187229679177783,10.616490803896143,110.27757019692038,-14.664056762095782,132.26477097428244,Accident
520,3.6007852492164876,1.508234422472444,18.50980976424163,-39.01642983589957,-4.632619990152698,-59.67537011804811,Accident
838,1.5083532806855826,-2.904137275530736,5.809790542561636,108.06818645592044,-27.774919608980998,-98.21439715648458,Accident
962,0.47008118473957383,0.1479249945606679,14.529315996969721,-9.867525123688836,87.21467768163575,2.7910357671526853,Accident
64,0.406262911197099,0.6006069610819724,9.618779529298434,3.684219485462167,1.3268117469981422,-4.47673161181512,Normal
812,6.258141148611341,-2.5694947122275966,13.484116961325098,52.75609928908892,-64.4076144824407,17.517113268478006,Accident
14,-0.8624589162565164,-0.28838566528416637,10.667981901582625,-0.41340342921349627,4.147374209658742,-0.6272713000145012,Normal
156,0.9328872555723783,0.0069646459564731015,9.455924827411138,0.8423048813480715,-1.875981901619685,-5.459669501976565,Normal
40,0.3692332899977052,0.4178460560325709,10.641963845728935,-0.13757452525318128,-3.4735656554452907,-3.547899273745863,Normal
492,0.03868415382380915,-0.12358869126029846,9.517876200671306,5.944566857373214,-2.46561411199886,0.3601843064187238,Normal
379,-0.40414914267757573,0.594196636724042,10.71300485677347,-4.029350332480944,1.3014025329144308,-0.9366450920318735,Normal
187,-0.03641445632843639,-0.18741040377479876,9.687683425001488,1.0057982793641964,-1.3332616461720739,-7.677860616035529,Normal
763,3.5182705358023343,2.4698397470331157,11.124724103224388,30.73616576047172,33.3972071857036,-112.38535551420055,Accident
216,-0.3864126072687859,0.05711382433101982,9.463254687878067,1.6599016528450727,-2.1835986802029774,3.1275400841551786,Normal
791,-7.463425969605238,-1.2372414546494412,10.709072040136073,-31.990259093469717,36.535040858431934,-200.52572564293735,Accident
52,-0.33846100015297936,0.5838910308299037,10.04701509314137,-4.389912933782806,-3.290582445376283,9.35482587685891,Normal
878,1.5178966603675956,-4.598101679669792,12.885839821862605,-54.51041880556591,48.69884712995336,-65.39265075314718,Accident
337,-0.16069292082649672,-0.4991770203693955,9.648765156755937,0.5427985288826157,0.2488684359048004,8.129794576810315,Normal
748,0.6869891773780208,4.286573123440702,13.478959375543377,-69.4608769278666,65.54986145115251,-1.4315981606680042,Accident
719,2.16443797127203,-0.3190110075939449,6.588411622312905,8.94393265627106,-95.91611183951008,-152.3955563208511,Accident
724,0.8512530709845034,-1.8661044166631442,7.879791333090752,-6.473387013015056,234.85263218622225,-35.836907075998006,Accident
295,-0.3464547976303271,0.5265764266664518,9.750555173404429,-3.7598466586940953,2.6125705263287875,-4.242143170954073,Normal
701,1.2763345925525167,4.357850236458538,8.729374779601711,-115.61642115297803,-40.81286509201738,-17.372704570948528,Accident
251,0.45893097352738804,-0.6758423028081668,10.216764480804462,3.3893765976545382,7.555774651236737,7.865098626074282,Normal
726,-2.540552898376094,1.4906207715227913,17.606453521631558,16.848067143811342,-34.30783404848587,-176.66246209826016,Accident
461,0.017631775985864306,0.6645762650662157,9.187850881855319,1.4277703742882846,3.7134120917986118,-3.042948616198502,Normal
455,-0.3964364161311721,0.5586479157940638,8.919618620422092,6.872190465854087,7.436230776679636,8.73681598957779,Normal
996,2.4465030673327877,-6.23343545956859,9.584484744771371,56.91284635723961,-10.283703460156548,92.2118482609354,Accident
815,1.2493381143043578,-5.37931935760373,15.01777353538925,-19.82019345917674,-20.824723301715004,54.73305668871636,Accident
862,-5.381677493603671,-0.021134956441664098,12.829802296533542,-54.96112797595978,4.950668230970817,-26.784238995560152,Accident
269,0.06537028864304567,0.9062242789984644,10.41804658760522,2.757426880202338,-0.40761336550822946,-0.9823329171404859,Normal
201,0.2803922631841172,0.5245046129184446,9.585297229437375,2.4459356507383174,-0.9545189586364934,5.454902125929834,Normal
161,0.393542301871226,-0.27342947062019607,10.945471286295371,-0.5903426349553937,1.2325238921600243,-4.4753492113830236,Normal
555,-2.570316281480378,-0.09684183314841097,12.619085313976353,-24.037275897656297,-89.7224117940022,-116.07423128889793,Accident
729,-0.11705855813263236,-6.9484315889066295,12.02566824247305,1.5475256649403433,76.63456441725472,-4.200405483092174,Accident
401,-0.29968751147688644,-0.19666940616368034,10.068326376263643,-1.6690974487800498,0.8841043606969899,-2.1211816669902177,Normal
702,0.6668695674025622,-2.748962757220259,9.04338119783721,53.301573763481855,11.956487173064762,4.669623265431651,Accident
476,0.2882784815278832,-0.22615315962453836,9.73952592569611,5.620563599930067,-1.154331869223845,6.318533388273343,Normal
821,-2.712204869208001,0.807884257742202,11.678205702567174,-14.708311452736773,-95.87136999616362,21.48748648354383,Accident
771,-2.618883271361101,-1.4927125151556215,10.428806091685734,-77.98452607382735,207.03271788245476,-13.139358802562551,Accident
105,0.2020254284072692,0.938397906279033,9.280047036437235,-4.766643041293562,8.213364766279817,-0.9226267882792477,Normal
565,0.9647796340177157,0.15498293055323942,10.101359175345625,-45.651234416009025,-16.390133109177377,55.205894106929,Accident
389,-0.28845182783120155,0.5543517902914539,9.423291064826909,-0.07226135439139551,5.176246673618763,1.9149449237046423,Normal
1,-0.06913215058559233,0.9547083202350652,10.262316841456386,-2.7559285816426673,-0.7225933535775891,4.840923302664305,Normal
937,-3.828913249615008,-3.998332192438949,11.182365835914572,98.39922947509464,94.71899545575114,-126.44831526473352,Accident
982,-1.0839316859018715,9.456170203536255,9.464538124721523,22.941928990606897,6.6218323028340595,159.30963347335236,Accident
561,-0.9985812131475338,-2.270291931047779,12.837803514649577,137.52324902734568,83.75294355905115,-2.100863461588171,Accident
80,-0.10983594391875597,0.16924820374720706,9.62567393279607,1.0028459861547143,0.002639794282986464,1.8605273630343144,Normal
205,-0.4689125199575614,0.3030049756728198,9.820295845601942,-1.2062882730927122,2.3620313894018867,5.225442370423767,Normal
34,0.4112724560515945,-0.3259180539010796,9.558406768850313,-2.330182509341211,5.301049537494399,-2.086834068025422,Normal
775,4.066328403316487,1.4146271412546172,11.696157843895401,62.61038610532145,62.668696841922504,-104.22758108197962,Accident
508,3.24807316166122,1.5007214083097096,10.535178472645367,52.621054092029894,-58.73866575768303,-18.168480622474082,Accident
427,0.34302572999921965,0.18860593753226043,9.248395817139158,-1.4300211094005542,-0.310955084996555,1.0735659158526318,Normal
454,-0.2651288091862204,-0.0410755891962844,10.082754822815772,-2.9783064702174604,3.4102603285630995,-4.7445826041241865,Normal
366,0.11204624090520839,0.14293269536245248,9.786347730245035,5.162731021708287,-2.6790073152614893,-4.192928992236155,Normal
91,0.4843224952664446,-0.23882872338255834,9.78138888174508,-14.606752417473036,1.5023717980541418,-2.28650827543395,Normal
339,-0.28186227640198736,-0.10699442211275448,9.885208111187744,-1.0405842863626984,-3.3016056973672354,-0.7952260520002564,Normal
897,4.467339324984868,2.131647306893356,9.107399785730266,-89.60379379758977,58.64434251727988,86.5211269039793,Accident
564,-4.5434109275423005,2.875157459526127,9.024910009679068,63.34874483104541,59.49214204321386,2.519324980959662,Accident
345,0.11602496867881815,0.24622563200407455,9.057551015775049,-5.138375704629791,5.485763558768478,-5.48651263816422,Normal
776,3.510596127589811,-5.493434635015051,10.20468725825686,-1.9386267095753718,-117.63916409850005,36.16542706077368,Accident
241,-0.05736822073344951,-0.6397884833678508,9.69820981994882,-0.8441086159500532,2.922064902362421,2.316442650590531,Normal
13,-0.956640122328899,-0.45378183102079894,9.455406090955217,-9.3326830853653,-4.699515505544324,-1.2747789677684893,Normal
315,0.010501920816379524,-0.742780186518486,9.14408188382492,-4.455961127076437,2.107933053072278,4.070758810591332,Normal
600,-2.1206777039620466,-2.4718064609159986,7.499334415659192,-17.276841628018577,82.30151931387844,-15.056195101825692,Accident
387,0.9380854196079431,-0.17964604539352977,10.580755598363426,2.1203052223204484,-4.621165721341522,6.941688891042239,Normal
273,0.0051165305097935244,0.48627722481336494,9.6417957751526,0.9730372761862136,0.170762087440123,-7.743091494318733,Normal
166,0.411030079997245,-0.12748860871042764,10.49213640925526,-4.996511161474554,-4.054287556051691,4.240871063333341,Normal
840,2.1182367414453944,-1.8429694322888832,14.823545599259909,-64.51015432944399,-84.30683962914765,28.66756088608026,Accident
992,1.488597562089949,-5.926463313651412,10.232003305717914,-9.184179900725093,-30.300786928247465,-79.8645420232844,Accident
646,-2.1228776844660784,0.7759834435661643,13.165127187690505,-111.41883777335971,-9.942862172994904,-48.60550334236447,Accident
818,3.3655735686914126,-1.193039080843812,12.463480996785753,50.20850380494649,-15.496430384396964,-99.98562716714913,Accident
484,-0.3781753726421517,-0.0018012695452842022,9.912342362875943,4.7656252268804336,-2.7477856795429005,-8.274437181141481,Normal
980,-0.9065417609478642,4.087688558137356,8.416431180701895,-95.83731433738093,156.786980379574,-79.87526823013746,Accident
504,1.6696593736012746,-1.505352578434596,7.899424910157521,-17.12541581822891,58.6263265457396,-38.68937116443494,Accident
831,-4.637189360072199,-1.5848911399889376,8.538923155980424,-94.90691416878835,-20.395757632287147,-9.569569949501707,Accident
243,0.43287759708506074,0.013045525105416893,9.292621634653567,5.809391513040953,-7.821208058555257,2.7906975725925314,Normal
566,5.264799214941725,0.6872240646171077,12.567984921877123,68.19749147463605,2.5116692426221157,87.01683409262928,Accident
